subj_idx,response,rt,trial,split_by,feedback,subj_code,q_init
1,0,0.954,1,1,1,7114320,0.5
1,1,1.631,1,1,0,7114320,0.5
1,0,1.079,2,1,1,7114320,0.5
1,0,1.631,2,1,1,7114320,0.5
1,0,1.102,3,1,1,7114320,0.5
1,0,0.873,3,1,1,7114320,0.5
1,0,0.625,4,1,0,7114320,0.5
1,0,0.957,4,1,1,7114320,0.5
1,1,2.018,5,1,0,7114320,0.5
1,0,2.421,5,1,1,7114320,0.5
1,1,0.415,6,1,0,7114320,0.5
1,0,0.71,6,1,0,7114320,0.5
1,1,1.014,7,1,0,7114320,0.5
1,0,1.776,7,1,1,7114320,0.5
1,0,0.396,8,1,1,7114320,0.5
1,0,0.948,8,1,0,7114320,0.5
1,0,0.477,9,1,1,7114320,0.5
1,0,1.358,9,1,1,7114320,0.5
1,0,0.605,10,1,1,7114320,0.5
1,0,2.167,10,1,1,7114320,0.5
1,0,0.335,11,1,0,7114320,0.5
1,1,1.881,11,1,1,7114320,0.5
1,0,0.34,12,1,1,7114320,0.5
1,0,0.879,12,1,1,7114320,0.5
1,1,0.408,13,1,0,7114320,0.5
1,1,2.342,13,1,1,7114320,0.5
1,0,0.436,14,1,0,7114320,0.5
1,1,0.949,14,1,0,7114320,0.5
1,0,0.809,15,1,0,7114320,0.5
1,1,0.83,15,1,0,7114320,0.5
1,1,0.722,16,1,1,7114320,0.5
1,0,0.422,16,1,1,7114320,0.5
1,1,0.484,17,1,0,7114320,0.5
1,0,0.298,17,1,1,7114320,0.5
1,1,0.498,18,1,0,7114320,0.5
1,0,1.253,18,1,1,7114320,0.5
1,0,0.492,19,1,0,7114320,0.5
1,0,1.13,19,1,0,7114320,0.5
1,0,0.202,20,1,1,7114320,0.5
1,1,1.639,20,1,0,7114320,0.5
1,1,0.424,21,1,1,7114320,0.5
1,0,2.135,21,1,1,7114320,0.5
1,0,0.508,22,1,1,7114320,0.5
1,1,1.776,22,1,0,7114320,0.5
1,0,0.482,23,1,1,7114320,0.5
1,0,1.051,23,1,0,7114320,0.5
1,0,0.726,24,1,1,7114320,0.5
1,0,1.432,24,1,0,7114320,0.5
1,1,0.353,25,1,1,7114320,0.5
1,0,0.675,25,1,0,7114320,0.5
1,0,0.243,26,1,1,7114320,0.5
1,0,0.676,26,1,1,7114320,0.5
1,0,0.347,27,1,0,7114320,0.5
1,0,1.028,27,1,1,7114320,0.5
1,1,0.298,28,1,0,7114320,0.5
1,1,1.448,28,1,0,7114320,0.5
1,0,0.238,29,1,1,7114320,0.5
1,1,1.455,29,1,1,7114320,0.5
1,1,0.294,30,1,0,7114320,0.5
1,0,0.704,30,1,1,7114320,0.5
1,0,1.698,31,1,1,7114320,0.5
1,0,1.095,31,1,0,7114320,0.5
1,0,1.41,32,1,1,7114320,0.5
1,0,0.793,32,1,1,7114320,0.5
1,0,0.872,33,1,1,7114320,0.5
1,0,1.058,33,1,0,7114320,0.5
1,0,0.813,34,1,0,7114320,0.5
1,0,0.877,34,1,1,7114320,0.5
1,1,0.959,35,1,0,7114320,0.5
1,1,0.998,35,1,0,7114320,0.5
1,1,1.215,36,1,0,7114320,0.5
1,1,1.264,36,1,0,7114320,0.5
1,0,1.053,37,1,1,7114320,0.5
1,1,1.129,37,1,0,7114320,0.5
1,1,0.499,38,1,1,7114320,0.5
1,0,0.679,38,1,0,7114320,0.5
1,1,0.299,39,1,1,7114320,0.5
1,0,0.545,39,1,1,7114320,0.5
1,1,0.366,40,1,0,7114320,0.5
1,0,0.703,40,1,1,7114320,0.5
1,1,0.241,41,1,1,7114320,0.5
1,0,0.56,41,1,0,7114320,0.5
1,1,0.226,42,1,0,7114320,0.5
1,0,1.522,42,1,0,7114320,0.5
1,0,0.317,43,1,1,7114320,0.5
1,1,0.816,43,1,0,7114320,0.5
1,0,0.365,44,1,0,7114320,0.5
1,0,0.717,44,1,1,7114320,0.5
1,0,0.641,45,1,0,7114320,0.5
1,0,1.01,45,1,0,7114320,0.5
1,1,0.241,46,1,1,7114320,0.5
1,0,0.985,46,1,0,7114320,0.5
1,0,0.882,47,1,1,7114320,0.5
1,0,0.77,47,1,0,7114320,0.5
1,0,0.794,48,1,0,7114320,0.5
1,0,0.749,48,1,0,7114320,0.5
1,1,0.507,49,1,0,7114320,0.5
1,0,0.488,49,1,0,7114320,0.5
1,1,0.409,50,1,1,7114320,0.5
1,0,0.96,50,1,0,7114320,0.5
1,1,0.446,51,1,1,7114320,0.5
1,1,0.461,51,1,0,7114320,0.5
1,1,1.63,52,1,1,7114320,0.5
1,0,0.829,52,1,0,7114320,0.5
1,0,1.375,53,1,0,7114320,0.5
1,0,0.468,53,1,0,7114320,0.5
1,1,1.315,54,1,1,7114320,0.5
1,0,0.436,54,1,0,7114320,0.5
1,0,1.327,55,1,0,7114320,0.5
1,0,0.663,55,1,1,7114320,0.5
1,1,1.182,56,1,1,7114320,0.5
1,0,0.85,56,1,1,7114320,0.5
1,0,1.257,57,1,0,7114320,0.5
1,0,0.578,57,1,0,7114320,0.5
1,1,1.25,58,1,1,7114320,0.5
1,0,1.746,58,1,1,7114320,0.5
1,1,0.754,59,1,1,7114320,0.5
1,0,1.196,59,1,0,7114320,0.5
1,1,2.425,60,1,0,7114320,0.5
1,0,2.035,60,1,0,7114320,0.5
1,1,1.635,61,1,0,7114320,0.5
1,1,1.412,61,1,1,7114320,0.5
1,0,0.791,62,1,0,7114320,0.5
1,0,0.766,62,1,0,7114320,0.5
1,0,1.643,63,1,1,7114320,0.5
1,0,1.746,63,1,0,7114320,0.5
1,1,1.136,64,1,0,7114320,0.5
1,0,0.892,64,1,0,7114320,0.5
1,0,1.665,65,1,0,7114320,0.5
1,0,0.285,65,1,1,7114320,0.5
1,0,0.722,66,1,0,7114320,0.5
1,1,0.302,66,1,1,7114320,0.5
1,0,0.789,67,1,0,7114320,0.5
1,0,0.572,67,1,1,7114320,0.5
1,0,0.535,68,1,1,7114320,0.5
1,0,1.35,68,1,0,7114320,0.5
1,1,0.885,69,1,1,7114320,0.5
1,0,1.996,69,1,0,7114320,0.5
1,0,1.025,70,1,0,7114320,0.5
1,0,0.646,70,1,0,7114320,0.5
1,1,0.843,71,1,1,7114320,0.5
1,1,0.262,71,1,0,7114320,0.5
1,1,1.137,72,1,0,7114320,0.5
1,1,0.586,72,1,0,7114320,0.5
1,1,0.624,73,1,0,7114320,0.5
1,0,0.778,73,1,0,7114320,0.5
1,1,0.37,74,1,1,7114320,0.5
1,0,0.516,74,1,0,7114320,0.5
1,0,0.478,75,1,0,7114320,0.5
1,1,2.105,75,1,1,7114320,0.5
1,1,0.412,76,1,1,7114320,0.5
1,0,1.048,76,1,0,7114320,0.5
1,1,0.939,77,1,0,7114320,0.5
1,1,0.898,77,1,0,7114320,0.5
1,1,0.548,78,1,1,7114320,0.5
1,0,0.4,78,1,0,7114320,0.5
1,1,1.129,79,1,0,7114320,0.5
1,0,0.532,79,1,0,7114320,0.5
1,1,2.285,80,1,1,7114320,0.5
1,0,0.837,80,1,1,7114320,0.5
1,0,0.504,81,1,1,7114320,0.5
1,1,1.889,81,1,0,7114320,0.5
1,0,0.464,82,1,0,7114320,0.5
1,0,0.487,82,1,1,7114320,0.5
1,0,1.04,83,1,1,7114320,0.5
1,0,0.754,83,1,0,7114320,0.5
1,0,0.502,84,1,1,7114320,0.5
1,0,0.732,84,1,0,7114320,0.5
1,0,0.464,85,1,1,7114320,0.5
1,1,0.545,85,1,1,7114320,0.5
1,0,1.061,86,1,1,7114320,0.5
1,0,1.072,86,1,0,7114320,0.5
1,1,0.49,87,1,1,7114320,0.5
1,0,1.192,87,1,0,7114320,0.5
1,0,0.938,88,1,0,7114320,0.5
1,1,0.867,88,1,0,7114320,0.5
1,0,0.652,89,1,1,7114320,0.5
1,0,0.957,89,1,1,7114320,0.5
1,0,0.57,90,1,1,7114320,0.5
1,1,1.716,90,1,0,7114320,0.5
1,1,1.457,91,1,0,7114320,0.5
1,0,0.587,91,1,1,7114320,0.5
1,1,2.134,92,1,0,7114320,0.5
1,0,0.829,92,1,1,7114320,0.5
1,1,1.233,93,1,1,7114320,0.5
1,0,0.434,93,1,1,7114320,0.5
1,1,1.086,94,1,0,7114320,0.5
1,0,0.522,94,1,1,7114320,0.5
1,1,1.081,95,1,1,7114320,0.5
1,0,0.464,95,1,1,7114320,0.5
1,1,0.644,96,1,0,7114320,0.5
1,0,0.57,96,1,0,7114320,0.5
1,0,1.377,97,1,0,7114320,0.5
1,1,0.826,97,1,0,7114320,0.5
1,0,0.905,98,1,1,7114320,0.5
1,0,1.519,98,1,1,7114320,0.5
1,1,0.84,99,1,1,7114320,0.5
1,0,1.483,99,1,0,7114320,0.5
1,0,0.734,100,1,1,7114320,0.5
1,0,0.801,100,1,1,7114320,0.5
1,0,1.526,101,1,1,7114320,0.5
1,0,1.076,101,1,1,7114320,0.5
1,0,0.89,102,1,1,7114320,0.5
1,0,0.68,102,1,1,7114320,0.5
1,0,0.759,103,1,1,7114320,0.5
1,0,0.862,103,1,1,7114320,0.5
1,0,0.919,104,1,1,7114320,0.5
1,1,2.152,104,1,1,7114320,0.5
1,0,1.268,105,1,1,7114320,0.5
1,0,1.524,105,1,0,7114320,0.5
1,0,1.066,106,1,1,7114320,0.5
1,1,1.459,106,1,0,7114320,0.5
1,1,0.979,107,1,0,7114320,0.5
1,0,0.487,107,1,1,7114320,0.5
1,0,0.666,108,1,1,7114320,0.5
1,1,1.26,108,1,0,7114320,0.5
1,0,0.751,109,1,1,7114320,0.5
1,0,0.772,109,1,1,7114320,0.5
1,0,0.804,110,1,0,7114320,0.5
1,0,1.594,110,1,1,7114320,0.5
1,0,0.593,111,1,1,7114320,0.5
1,0,0.525,111,1,1,7114320,0.5
1,0,0.559,112,1,1,7114320,0.5
1,0,0.582,112,1,1,7114320,0.5
1,1,0.868,113,1,0,7114320,0.5
1,0,0.596,113,1,1,7114320,0.5
1,1,0.793,114,1,1,7114320,0.5
1,1,0.96,114,1,1,7114320,0.5
1,0,1.804,115,1,0,7114320,0.5
1,0,1.285,115,1,0,7114320,0.5
1,0,1.259,116,1,1,7114320,0.5
1,1,0.545,116,1,0,7114320,0.5
1,0,0.876,117,1,1,7114320,0.5
1,0,0.569,117,1,0,7114320,0.5
1,1,1.288,118,1,1,7114320,0.5
1,1,0.586,118,1,1,7114320,0.5
1,1,0.708,119,1,1,7114320,0.5
1,1,0.545,119,1,0,7114320,0.5
1,1,0.639,120,1,1,7114320,0.5
1,0,0.501,120,1,0,7114320,0.5
1,0,0.36,121,1,0,7114320,0.5
1,0,0.277,121,1,0,7114320,0.5
1,0,0.864,122,1,0,7114320,0.5
1,0,0.276,122,1,0,7114320,0.5
1,0,0.801,123,1,0,7114320,0.5
1,0,0.573,123,1,0,7114320,0.5
1,1,1.269,124,1,1,7114320,0.5
1,0,0.479,124,1,0,7114320,0.5
1,0,0.676,125,1,1,7114320,0.5
1,0,0.358,125,1,0,7114320,0.5
1,0,0.893,126,1,0,7114320,0.5
1,1,0.521,126,1,1,7114320,0.5
1,1,0.829,127,1,0,7114320,0.5
1,1,1.536,127,1,0,7114320,0.5
1,0,0.49,128,1,1,7114320,0.5
1,0,2.253,128,1,0,7114320,0.5
1,1,1.546,129,1,1,7114320,0.5
1,1,0.805,129,1,1,7114320,0.5
1,0,0.603,130,1,1,7114320,0.5
1,1,1.471,130,1,0,7114320,0.5
1,0,0.734,131,1,1,7114320,0.5
1,1,0.283,131,1,0,7114320,0.5
1,1,0.928,132,1,0,7114320,0.5
1,1,0.154,132,1,1,7114320,0.5
1,0,0.627,133,1,0,7114320,0.5
1,1,0.378,133,1,1,7114320,0.5
1,0,0.886,134,1,0,7114320,0.5
1,0,0.48,134,1,0,7114320,0.5
1,1,1.281,135,1,1,7114320,0.5
1,1,0.347,135,1,1,7114320,0.5
1,0,0.886,136,1,0,7114320,0.5
1,1,0.296,136,1,1,7114320,0.5
1,1,1.078,137,1,0,7114320,0.5
1,1,0.397,137,1,1,7114320,0.5
1,1,1.391,138,1,1,7114320,0.5
1,0,2.105,138,1,1,7114320,0.5
1,1,1.16,139,1,1,7114320,0.5
1,1,0.797,139,1,1,7114320,0.5
1,1,0.963,140,1,0,7114320,0.5
1,1,1.556,140,1,0,7114320,0.5
1,1,0.683,141,1,1,7114320,0.5
1,0,1.081,141,1,0,7114320,0.5
1,1,0.747,142,1,1,7114320,0.5
1,0,0.24,142,1,0,7114320,0.5
1,1,1.378,143,1,1,7114320,0.5
1,1,0.309,143,1,1,7114320,0.5
1,0,0.855,144,1,0,7114320,0.5
1,1,0.509,144,1,0,7114320,0.5
1,1,0.922,145,1,1,7114320,0.5
1,0,0.301,145,1,0,7114320,0.5
1,1,1.753,146,1,1,7114320,0.5
1,0,0.838,146,1,0,7114320,0.5
1,1,0.885,147,1,1,7114320,0.5
1,1,1.438,147,1,1,7114320,0.5
1,1,0.631,148,1,1,7114320,0.5
1,0,0.589,148,1,1,7114320,0.5
1,1,0.564,149,1,1,7114320,0.5
1,1,1.204,149,1,1,7114320,0.5
1,0,1.405,150,1,1,7114320,0.5
1,0,0.811,150,1,1,7114320,0.5
1,1,1.27,151,1,1,7114320,0.5
1,0,1.328,151,1,1,7114320,0.5
1,1,1.091,152,1,0,7114320,0.5
1,0,0.876,152,1,0,7114320,0.5
1,1,0.878,153,1,1,7114320,0.5
1,0,0.8,153,1,0,7114320,0.5
1,0,1.164,154,1,0,7114320,0.5
1,1,0.44,154,1,0,7114320,0.5
1,1,0.998,155,1,1,7114320,0.5
1,1,0.985,155,1,1,7114320,0.5
1,1,0.856,156,1,1,7114320,0.5
1,0,1.252,156,1,0,7114320,0.5
1,1,0.801,157,1,1,7114320,0.5
1,1,0.548,157,1,1,7114320,0.5
1,1,1.385,158,1,1,7114320,0.5
1,0,0.631,158,1,1,7114320,0.5
1,1,1.509,159,1,1,7114320,0.5
1,0,0.529,159,1,0,7114320,0.5
1,1,0.767,160,1,0,7114320,0.5
1,1,0.509,160,1,0,7114320,0.5
2,0,2.01,1,1,1,7111207,0.5
2,0,1.22,2,1,1,7111207,0.5
2,0,1.364,3,1,0,7111207,0.5
2,0,0.898,4,1,1,7111207,0.5
2,1,0.858,5,1,0,7111207,0.5
2,0,0.976,6,1,0,7111207,0.5
2,0,1.269,7,1,1,7111207,0.5
2,0,1.141,8,1,1,7111207,0.5
2,0,1.315,9,1,1,7111207,0.5
2,0,2.003,10,1,1,7111207,0.5
2,0,0.425,11,1,1,7111207,0.5
2,0,0.452,12,1,0,7111207,0.5
2,0,0.477,13,1,0,7111207,0.5
2,1,0.485,14,1,0,7111207,0.5
2,0,0.363,15,1,1,7111207,0.5
2,0,1.112,16,1,1,7111207,0.5
2,0,0.736,17,1,0,7111207,0.5
2,0,0.464,18,1,0,7111207,0.5
2,0,0.673,19,1,0,7111207,0.5
2,0,0.661,20,1,1,7111207,0.5
2,0,0.763,21,1,1,7111207,0.5
2,0,0.739,22,1,1,7111207,0.5
2,0,0.526,23,1,1,7111207,0.5
2,0,0.442,24,1,1,7111207,0.5
2,0,0.45,25,1,1,7111207,0.5
2,0,0.489,26,1,0,7111207,0.5
2,0,0.44,27,1,1,7111207,0.5
2,1,0.926,28,1,0,7111207,0.5
2,0,0.44,29,1,0,7111207,0.5
2,0,0.594,30,1,0,7111207,0.5
2,0,0.781,31,1,0,7111207,0.5
2,0,0.468,32,1,0,7111207,0.5
2,0,0.437,33,1,1,7111207,0.5
2,0,0.408,34,1,1,7111207,0.5
2,0,0.366,35,1,1,7111207,0.5
2,0,0.427,36,1,1,7111207,0.5
2,0,0.403,37,1,1,7111207,0.5
2,0,0.311,38,1,1,7111207,0.5
2,0,0.478,39,1,1,7111207,0.5
2,0,0.447,40,1,1,7111207,0.5
2,0,0.433,41,1,1,7111207,0.5
2,0,0.398,42,1,0,7111207,0.5
2,1,0.775,43,1,1,7111207,0.5
2,0,0.514,44,1,0,7111207,0.5
2,0,0.447,45,1,1,7111207,0.5
2,0,0.416,46,1,1,7111207,0.5
2,0,1.336,47,1,0,7111207,0.5
2,0,1.225,48,1,1,7111207,0.5
2,0,0.545,49,1,1,7111207,0.5
2,0,0.609,50,1,0,7111207,0.5
2,1,0.425,51,1,0,7111207,0.5
2,0,0.539,52,1,1,7111207,0.5
2,0,0.561,53,1,0,7111207,0.5
2,0,0.441,54,1,0,7111207,0.5
2,0,0.414,55,1,0,7111207,0.5
2,0,0.548,56,1,0,7111207,0.5
2,0,0.559,57,1,0,7111207,0.5
2,0,0.513,58,1,0,7111207,0.5
2,1,0.925,59,1,1,7111207,0.5
2,1,0.395,60,1,1,7111207,0.5
2,1,0.334,61,1,1,7111207,0.5
2,1,0.737,62,1,1,7111207,0.5
2,1,0.465,63,1,0,7111207,0.5
2,1,0.46,64,1,0,7111207,0.5
2,0,0.71,65,1,0,7111207,0.5
2,0,1.031,66,1,1,7111207,0.5
2,0,0.6,67,1,0,7111207,0.5
2,0,1.094,68,1,0,7111207,0.5
2,1,0.684,69,1,1,7111207,0.5
2,1,0.471,70,1,1,7111207,0.5
2,1,0.536,71,1,1,7111207,0.5
2,1,0.405,72,1,0,7111207,0.5
2,1,0.887,73,1,1,7111207,0.5
2,1,0.614,74,1,1,7111207,0.5
2,1,0.516,75,1,0,7111207,0.5
2,1,0.409,76,1,1,7111207,0.5
2,1,0.69,77,1,1,7111207,0.5
2,1,0.614,78,1,1,7111207,0.5
2,1,0.563,79,1,1,7111207,0.5
2,1,0.445,80,1,1,7111207,0.5
2,1,0.75,81,1,0,7111207,0.5
2,1,0.762,82,1,1,7111207,0.5
2,1,1.093,83,1,0,7111207,0.5
2,1,0.567,84,1,1,7111207,0.5
2,1,0.713,85,1,0,7111207,0.5
2,1,0.543,86,1,0,7111207,0.5
2,1,0.643,87,1,0,7111207,0.5
2,0,0.491,88,1,0,7111207,0.5
2,0,1.266,89,1,0,7111207,0.5
2,1,0.652,90,1,1,7111207,0.5
2,1,0.557,91,1,0,7111207,0.5
2,1,0.765,92,1,1,7111207,0.5
2,1,0.54,93,1,0,7111207,0.5
2,1,0.687,94,1,0,7111207,0.5
2,0,0.405,95,1,1,7111207,0.5
2,1,0.5,96,1,0,7111207,0.5
2,0,0.625,97,1,1,7111207,0.5
2,0,0.404,98,1,1,7111207,0.5
2,0,0.506,99,1,1,7111207,0.5
2,0,0.521,100,1,1,7111207,0.5
2,0,0.513,101,1,1,7111207,0.5
2,0,0.486,102,1,1,7111207,0.5
2,0,0.531,103,1,0,7111207,0.5
2,0,0.464,104,1,0,7111207,0.5
2,0,0.568,105,1,1,7111207,0.5
2,1,0.311,106,1,0,7111207,0.5
2,0,0.688,107,1,0,7111207,0.5
2,0,0.526,108,1,1,7111207,0.5
2,0,0.561,109,1,1,7111207,0.5
2,0,0.795,110,1,1,7111207,0.5
2,0,0.517,111,1,1,7111207,0.5
2,0,0.73,112,1,0,7111207,0.5
2,0,0.601,113,1,0,7111207,0.5
2,0,0.54,114,1,1,7111207,0.5
2,0,0.711,115,1,1,7111207,0.5
2,0,0.524,116,1,1,7111207,0.5
2,0,0.564,117,1,0,7111207,0.5
2,0,0.553,118,1,1,7111207,0.5
2,0,0.448,119,1,1,7111207,0.5
2,0,0.552,120,1,1,7111207,0.5
2,0,0.59,121,1,0,7111207,0.5
2,0,0.927,122,1,0,7111207,0.5
2,0,0.751,123,1,0,7111207,0.5
2,0,0.422,124,1,0,7111207,0.5
2,1,0.553,125,1,1,7111207,0.5
2,1,0.573,126,1,0,7111207,0.5
2,1,0.346,127,1,0,7111207,0.5
2,1,0.552,128,1,1,7111207,0.5
2,1,0.354,129,1,1,7111207,0.5
2,1,0.498,130,1,0,7111207,0.5
2,1,0.697,131,1,1,7111207,0.5
2,1,0.711,132,1,1,7111207,0.5
2,1,0.344,133,1,1,7111207,0.5
2,1,0.553,134,1,1,7111207,0.5
2,1,0.474,135,1,1,7111207,0.5
2,1,0.582,136,1,0,7111207,0.5
2,1,0.292,137,1,1,7111207,0.5
2,1,0.747,138,1,1,7111207,0.5
2,1,0.423,139,1,1,7111207,0.5
2,1,0.577,140,1,0,7111207,0.5
2,1,0.486,141,1,0,7111207,0.5
2,1,0.739,142,1,0,7111207,0.5
2,1,0.608,143,1,1,7111207,0.5
2,1,1.445,144,1,0,7111207,0.5
2,0,0.459,145,1,0,7111207,0.5
2,1,0.799,146,1,1,7111207,0.5
2,1,0.538,147,1,0,7111207,0.5
2,1,0.477,148,1,1,7111207,0.5
2,1,0.429,149,1,1,7111207,0.5
2,1,0.3,150,1,1,7111207,0.5
2,1,0.357,151,1,1,7111207,0.5
2,1,0.747,152,1,0,7111207,0.5
2,1,0.488,153,1,1,7111207,0.5
2,1,0.436,154,1,1,7111207,0.5
2,1,0.357,155,1,1,7111207,0.5
2,1,0.351,156,1,1,7111207,0.5
2,1,0.446,157,1,1,7111207,0.5
2,0,0.431,158,1,1,7111207,0.5
2,1,0.682,159,1,0,7111207,0.5
2,1,0.607,160,1,1,7111207,0.5
3,0,1.342,1,1,0,7115069,0.5
3,0,1.678,2,1,1,7115069,0.5
3,0,1.134,3,1,0,7115069,0.5
3,0,1.228,4,1,1,7115069,0.5
3,0,1.039,5,1,1,7115069,0.5
3,1,1.137,6,1,0,7115069,0.5
3,1,0.859,7,1,1,7115069,0.5
3,0,0.704,8,1,0,7115069,0.5
3,1,0.516,9,1,0,7115069,0.5
3,1,0.637,10,1,1,7115069,0.5
3,1,0.816,11,1,1,7115069,0.5
3,1,1.175,12,1,0,7115069,0.5
3,0,0.696,13,1,1,7115069,0.5
3,1,1.887,14,1,0,7115069,0.5
3,1,0.756,15,1,0,7115069,0.5
3,0,1.743,16,1,1,7115069,0.5
3,0,0.78,17,1,1,7115069,0.5
3,1,1.151,18,1,1,7115069,0.5
3,1,1.346,19,1,0,7115069,0.5
3,0,0.701,20,1,1,7115069,0.5
3,0,1.381,21,1,1,7115069,0.5
3,0,1.342,22,1,1,7115069,0.5
3,0,0.839,23,1,0,7115069,0.5
3,0,0.872,24,1,0,7115069,0.5
3,0,0.764,25,1,1,7115069,0.5
3,0,0.814,26,1,1,7115069,0.5
3,0,1.589,27,1,0,7115069,0.5
3,0,2.148,28,1,1,7115069,0.5
3,0,0.763,29,1,1,7115069,0.5
3,0,0.448,30,1,1,7115069,0.5
3,0,0.843,31,1,1,7115069,0.5
3,0,1.058,32,1,1,7115069,0.5
3,1,0.963,33,1,0,7115069,0.5
3,0,0.681,34,1,1,7115069,0.5
3,0,0.62,35,1,1,7115069,0.5
3,0,1.267,36,1,1,7115069,0.5
3,0,0.675,37,1,0,7115069,0.5
3,0,0.661,38,1,1,7115069,0.5
3,1,1.377,39,1,0,7115069,0.5
3,0,0.524,40,1,0,7115069,0.5
3,1,1.242,41,1,0,7115069,0.5
3,0,1.086,42,1,0,7115069,0.5
3,0,0.459,43,1,1,7115069,0.5
3,0,0.65,44,1,0,7115069,0.5
3,0,1.073,45,1,1,7115069,0.5
3,0,0.476,46,1,0,7115069,0.5
3,0,0.708,47,1,1,7115069,0.5
3,0,0.649,48,1,1,7115069,0.5
3,0,1.014,49,1,0,7115069,0.5
3,0,0.531,50,1,1,7115069,0.5
3,0,0.689,51,1,0,7115069,0.5
3,0,0.641,52,1,0,7115069,0.5
3,1,1.342,53,1,1,7115069,0.5
3,1,1.193,54,1,1,7115069,0.5
3,0,1.059,55,1,1,7115069,0.5
3,0,2.41,56,1,0,7115069,0.5
3,1,1.47,57,1,1,7115069,0.5
3,0,1.131,58,1,0,7115069,0.5
3,0,0.854,59,1,0,7115069,0.5
3,1,1.01,60,1,1,7115069,0.5
3,0,0.842,61,1,0,7115069,0.5
3,1,1.168,62,1,1,7115069,0.5
3,0,0.436,63,1,0,7115069,0.5
3,0,0.404,64,1,0,7115069,0.5
3,0,0.477,65,1,0,7115069,0.5
3,1,0.917,66,1,0,7115069,0.5
3,0,0.532,67,1,1,7115069,0.5
3,1,1.393,68,1,1,7115069,0.5
3,0,0.805,69,1,0,7115069,0.5
3,0,0.546,70,1,0,7115069,0.5
3,1,0.816,71,1,1,7115069,0.5
3,1,0.394,72,1,1,7115069,0.5
3,0,0.293,73,1,1,7115069,0.5
3,1,0.734,74,1,1,7115069,0.5
3,1,0.618,75,1,0,7115069,0.5
3,1,0.89,76,1,1,7115069,0.5
3,0,1.003,77,1,0,7115069,0.5
3,1,1.08,78,1,0,7115069,0.5
3,0,0.638,79,1,0,7115069,0.5
3,1,0.795,80,1,1,7115069,0.5
3,1,1.462,81,1,0,7115069,0.5
3,0,0.65,82,1,1,7115069,0.5
3,1,0.864,83,1,0,7115069,0.5
3,0,1.344,84,1,0,7115069,0.5
3,1,1.043,85,1,1,7115069,0.5
3,1,1.11,86,1,1,7115069,0.5
3,1,0.834,87,1,0,7115069,0.5
3,1,1.147,88,1,1,7115069,0.5
3,1,0.934,89,1,0,7115069,0.5
3,1,0.884,90,1,0,7115069,0.5
3,1,0.938,91,1,0,7115069,0.5
3,0,0.439,92,1,1,7115069,0.5
3,1,1.054,93,1,0,7115069,0.5
3,0,1.224,94,1,0,7115069,0.5
3,1,0.751,95,1,1,7115069,0.5
3,0,0.987,96,1,0,7115069,0.5
3,1,1.335,97,1,0,7115069,0.5
3,1,0.859,98,1,0,7115069,0.5
3,0,0.303,99,1,1,7115069,0.5
3,1,0.746,100,1,0,7115069,0.5
3,0,0.701,101,1,1,7115069,0.5
3,0,0.776,102,1,1,7115069,0.5
3,0,0.598,103,1,1,7115069,0.5
3,1,1.435,104,1,1,7115069,0.5
3,1,1.279,105,1,0,7115069,0.5
3,0,0.911,106,1,1,7115069,0.5
3,0,0.887,107,1,1,7115069,0.5
3,0,0.726,108,1,1,7115069,0.5
3,1,1.971,109,1,1,7115069,0.5
3,0,1.137,110,1,1,7115069,0.5
3,1,1.365,111,1,0,7115069,0.5
3,0,1.045,112,1,1,7115069,0.5
3,0,0.597,113,1,0,7115069,0.5
3,0,0.74,114,1,0,7115069,0.5
3,0,1.259,115,1,0,7115069,0.5
3,0,1.356,116,1,1,7115069,0.5
3,1,1.116,117,1,1,7115069,0.5
3,0,1.046,118,1,1,7115069,0.5
3,1,0.499,119,1,0,7115069,0.5
3,0,0.969,120,1,1,7115069,0.5
3,0,0.638,121,1,1,7115069,0.5
3,0,0.648,122,1,1,7115069,0.5
3,0,0.816,123,1,0,7115069,0.5
3,1,1.165,124,1,1,7115069,0.5
3,1,1.583,125,1,0,7115069,0.5
3,0,0.718,126,1,0,7115069,0.5
3,0,0.88,127,1,0,7115069,0.5
3,0,0.969,128,1,1,7115069,0.5
3,0,1.113,129,1,1,7115069,0.5
3,1,1.463,130,1,1,7115069,0.5
3,0,0.93,131,1,0,7115069,0.5
3,0,1.221,132,1,0,7115069,0.5
3,0,0.988,133,1,0,7115069,0.5
3,1,1.987,134,1,1,7115069,0.5
3,1,0.824,135,1,1,7115069,0.5
3,0,1.814,136,1,0,7115069,0.5
3,1,1.425,137,1,1,7115069,0.5
3,1,0.467,138,1,1,7115069,0.5
3,0,0.714,139,1,0,7115069,0.5
3,1,0.952,140,1,1,7115069,0.5
3,0,1.344,141,1,1,7115069,0.5
3,0,1.168,142,1,0,7115069,0.5
3,0,0.791,143,1,0,7115069,0.5
3,1,1.128,144,1,0,7115069,0.5
3,1,1.206,145,1,1,7115069,0.5
3,1,0.736,146,1,0,7115069,0.5
3,1,1.759,147,1,0,7115069,0.5
3,1,0.22,148,1,0,7115069,0.5
3,1,1.269,149,1,1,7115069,0.5
3,0,0.222,150,1,1,7115069,0.5
3,0,1.253,151,1,1,7115069,0.5
3,0,0.794,152,1,0,7115069,0.5
3,1,0.833,153,1,1,7115069,0.5
3,1,1.485,154,1,0,7115069,0.5
3,0,1.007,155,1,1,7115069,0.5
3,0,1.018,156,1,0,7115069,0.5
3,0,1.202,157,1,0,7115069,0.5
3,0,1.295,158,1,0,7115069,0.5
3,1,1.417,159,1,1,7115069,0.5
3,0,1.286,160,1,0,7115069,0.5
4,1,1.323,1,1,0,7117560,0.5
4,0,1.757,2,1,0,7117560,0.5
4,1,1.831,3,1,0,7117560,0.5
4,1,1.344,4,1,0,7117560,0.5
4,0,0.444,5,1,1,7117560,0.5
4,0,1.723,6,1,0,7117560,0.5
4,1,0.579,7,1,1,7117560,0.5
4,0,1.832,8,1,0,7117560,0.5
4,1,1.199,9,1,0,7117560,0.5
4,1,1.058,10,1,0,7117560,0.5
4,1,0.766,11,1,0,7117560,0.5
4,0,0.193,12,1,1,7117560,0.5
4,1,1.228,13,1,1,7117560,0.5
4,0,0.95,14,1,1,7117560,0.5
4,0,1.015,15,1,1,7117560,0.5
4,0,0.685,16,1,1,7117560,0.5
4,1,0.757,17,1,0,7117560,0.5
4,0,0.611,18,1,0,7117560,0.5
4,0,0.443,19,1,1,7117560,0.5
4,0,0.459,20,1,0,7117560,0.5
4,0,0.357,21,1,1,7117560,0.5
4,0,0.42,22,1,1,7117560,0.5
4,1,0.682,23,1,1,7117560,0.5
4,1,0.593,24,1,0,7117560,0.5
4,1,0.176,25,1,0,7117560,0.5
4,0,0.44,26,1,1,7117560,0.5
4,0,0.739,27,1,1,7117560,0.5
4,0,0.712,28,1,1,7117560,0.5
4,1,1.211,29,1,1,7117560,0.5
4,0,0.978,30,1,1,7117560,0.5
4,1,0.87,31,1,0,7117560,0.5
4,0,0.842,32,1,0,7117560,0.5
4,0,0.385,33,1,1,7117560,0.5
4,0,0.514,34,1,0,7117560,0.5
4,0,0.773,35,1,1,7117560,0.5
4,0,0.367,36,1,1,7117560,0.5
4,0,0.673,37,1,0,7117560,0.5
4,0,0.671,38,1,1,7117560,0.5
4,0,0.492,39,1,1,7117560,0.5
4,1,0.589,40,1,0,7117560,0.5
4,1,0.354,41,1,0,7117560,0.5
4,1,0.282,42,1,0,7117560,0.5
4,0,0.239,43,1,0,7117560,0.5
4,0,0.595,44,1,0,7117560,0.5
4,1,0.251,45,1,1,7117560,0.5
4,1,0.392,46,1,1,7117560,0.5
4,1,0.343,47,1,1,7117560,0.5
4,1,0.886,48,1,0,7117560,0.5
4,0,0.228,49,1,1,7117560,0.5
4,0,0.755,50,1,0,7117560,0.5
4,1,0.392,51,1,0,7117560,0.5
4,1,0.293,52,1,1,7117560,0.5
4,1,0.267,53,1,1,7117560,0.5
4,0,0.339,54,1,1,7117560,0.5
4,1,0.453,55,1,1,7117560,0.5
4,0,1.925,56,1,0,7117560,0.5
4,0,1.731,57,1,0,7117560,0.5
4,0,1.816,58,1,0,7117560,0.5
4,1,0.281,59,1,1,7117560,0.5
4,0,0.687,60,1,0,7117560,0.5
4,1,1.662,61,1,1,7117560,0.5
4,1,0.854,62,1,1,7117560,0.5
4,1,1.7,63,1,1,7117560,0.5
4,1,1.488,64,1,1,7117560,0.5
4,1,0.344,65,1,0,7117560,0.5
4,0,0.971,66,1,0,7117560,0.5
4,1,1.735,67,1,1,7117560,0.5
4,0,0.914,68,1,0,7117560,0.5
4,0,0.345,69,1,0,7117560,0.5
4,1,0.689,70,1,0,7117560,0.5
4,1,0.452,71,1,1,7117560,0.5
4,0,0.264,72,1,0,7117560,0.5
4,0,0.575,73,1,0,7117560,0.5
4,0,0.711,74,1,0,7117560,0.5
4,1,1.457,75,1,0,7117560,0.5
4,1,0.241,76,1,1,7117560,0.5
4,1,1.262,77,1,0,7117560,0.5
4,0,0.282,78,1,0,7117560,0.5
4,1,0.334,79,1,1,7117560,0.5
4,1,0.983,80,1,1,7117560,0.5
4,0,2.218,81,1,0,7117560,0.5
4,1,1.011,82,1,0,7117560,0.5
4,0,0.226,83,1,0,7117560,0.5
4,0,0.221,84,1,1,7117560,0.5
4,0,0.26,85,1,1,7117560,0.5
4,1,0.218,86,1,1,7117560,0.5
4,1,0.185,87,1,0,7117560,0.5
4,0,0.359,88,1,1,7117560,0.5
4,1,0.216,89,1,0,7117560,0.5
4,0,1.359,90,1,1,7117560,0.5
4,1,1.281,91,1,0,7117560,0.5
4,1,0.293,92,1,0,7117560,0.5
4,1,0.448,93,1,0,7117560,0.5
4,1,0.215,94,1,0,7117560,0.5
4,1,0.447,95,1,0,7117560,0.5
4,1,0.206,96,1,1,7117560,0.5
4,0,0.384,97,1,1,7117560,0.5
4,0,0.414,98,1,0,7117560,0.5
4,0,0.469,99,1,0,7117560,0.5
4,1,0.518,100,1,0,7117560,0.5
4,0,0.992,101,1,1,7117560,0.5
4,0,0.596,102,1,1,7117560,0.5
4,1,1.148,103,1,0,7117560,0.5
4,0,1.136,104,1,1,7117560,0.5
4,0,0.292,105,1,1,7117560,0.5
4,0,0.165,106,1,1,7117560,0.5
4,1,0.185,107,1,0,7117560,0.5
4,0,0.197,108,1,1,7117560,0.5
4,1,0.31,109,1,0,7117560,0.5
4,1,0.521,110,1,1,7117560,0.5
4,0,0.196,111,1,0,7117560,0.5
4,0,1.848,112,1,1,7117560,0.5
4,0,0.843,113,1,1,7117560,0.5
4,0,0.395,114,1,0,7117560,0.5
4,1,1.935,115,1,1,7117560,0.5
4,1,1.759,116,1,0,7117560,0.5
4,0,0.29,117,1,1,7117560,0.5
4,1,0.921,118,1,0,7117560,0.5
4,0,0.598,119,1,1,7117560,0.5
4,1,1.572,120,1,0,7117560,0.5
4,0,0.865,121,1,0,7117560,0.5
4,0,0.404,122,1,1,7117560,0.5
4,0,0.372,123,1,0,7117560,0.5
4,0,0.415,124,1,0,7117560,0.5
4,0,0.86,125,1,0,7117560,0.5
4,0,0.984,126,1,0,7117560,0.5
4,1,0.533,127,1,1,7117560,0.5
4,1,0.227,128,1,1,7117560,0.5
4,0,0.86,129,1,1,7117560,0.5
4,0,1.215,130,1,1,7117560,0.5
4,0,0.474,131,1,0,7117560,0.5
4,1,0.309,132,1,1,7117560,0.5
4,0,1.045,133,1,1,7117560,0.5
4,1,0.978,134,1,1,7117560,0.5
4,1,0.225,135,1,1,7117560,0.5
4,1,0.453,136,1,0,7117560,0.5
4,1,0.567,137,1,1,7117560,0.5
4,1,0.718,138,1,1,7117560,0.5
4,1,1.462,139,1,1,7117560,0.5
4,1,0.433,140,1,1,7117560,0.5
4,0,1.576,141,1,0,7117560,0.5
4,1,0.492,142,1,1,7117560,0.5
4,1,0.976,143,1,1,7117560,0.5
4,0,1.57,144,1,1,7117560,0.5
4,0,0.54,145,1,0,7117560,0.5
4,1,0.597,146,1,1,7117560,0.5
4,0,0.748,147,1,1,7117560,0.5
4,1,0.567,148,1,1,7117560,0.5
4,1,0.41,149,1,1,7117560,0.5
4,1,0.322,150,1,1,7117560,0.5
4,0,1.565,151,1,1,7117560,0.5
4,0,0.545,152,1,0,7117560,0.5
4,1,0.27,153,1,1,7117560,0.5
4,1,0.209,154,1,1,7117560,0.5
4,1,0.795,155,1,1,7117560,0.5
4,0,0.369,156,1,1,7117560,0.5
4,0,0.371,157,1,1,7117560,0.5
4,0,0.327,158,1,0,7117560,0.5
4,1,0.173,159,1,0,7117560,0.5
4,0,0.349,160,1,1,7117560,0.5
5,1,1.064,1,1,1,7117562,0.5
5,1,1.717,2,1,0,7117562,0.5
5,0,2.274,3,1,1,7117562,0.5
5,0,1.69,4,1,1,7117562,0.5
5,1,0.923,5,1,0,7117562,0.5
5,0,0.777,6,1,1,7117562,0.5
5,0,0.51,7,1,1,7117562,0.5
5,0,0.373,8,1,1,7117562,0.5
5,0,0.393,9,1,1,7117562,0.5
5,0,0.386,10,1,1,7117562,0.5
5,0,0.343,11,1,1,7117562,0.5
5,0,0.424,12,1,1,7117562,0.5
5,0,0.319,13,1,0,7117562,0.5
5,0,0.895,14,1,0,7117562,0.5
5,0,0.378,15,1,1,7117562,0.5
5,0,0.416,16,1,1,7117562,0.5
5,0,0.367,17,1,1,7117562,0.5
5,0,0.864,18,1,0,7117562,0.5
5,0,0.597,19,1,0,7117562,0.5
5,0,0.532,20,1,1,7117562,0.5
5,0,0.454,21,1,1,7117562,0.5
5,0,0.407,22,1,1,7117562,0.5
5,0,0.349,23,1,1,7117562,0.5
5,1,0.618,24,1,0,7117562,0.5
5,0,0.889,25,1,0,7117562,0.5
5,0,0.464,26,1,0,7117562,0.5
5,0,0.965,27,1,1,7117562,0.5
5,0,0.537,28,1,1,7117562,0.5
5,0,0.3,29,1,0,7117562,0.5
5,1,0.354,30,1,0,7117562,0.5
5,0,0.4,31,1,1,7117562,0.5
5,0,0.594,32,1,0,7117562,0.5
5,0,1.348,33,1,0,7117562,0.5
5,1,1.024,34,1,0,7117562,0.5
5,0,0.664,35,1,1,7117562,0.5
5,0,0.335,36,1,1,7117562,0.5
5,0,0.319,37,1,1,7117562,0.5
5,0,0.335,38,1,0,7117562,0.5
5,1,0.325,39,1,1,7117562,0.5
5,0,0.426,40,1,0,7117562,0.5
5,0,0.376,41,1,1,7117562,0.5
5,0,0.671,42,1,0,7117562,0.5
5,1,0.443,43,1,0,7117562,0.5
5,0,0.6,44,1,0,7117562,0.5
5,0,0.381,45,1,0,7117562,0.5
5,1,0.574,46,1,1,7117562,0.5
5,0,0.793,47,1,0,7117562,0.5
5,0,0.409,48,1,0,7117562,0.5
5,0,0.334,49,1,1,7117562,0.5
5,0,0.369,50,1,1,7117562,0.5
5,0,0.96,51,1,0,7117562,0.5
5,1,0.599,52,1,1,7117562,0.5
5,0,0.357,53,1,0,7117562,0.5
5,0,0.313,54,1,1,7117562,0.5
5,0,0.59,55,1,1,7117562,0.5
5,0,0.373,56,1,0,7117562,0.5
5,0,0.381,57,1,0,7117562,0.5
5,0,0.307,58,1,0,7117562,0.5
5,0,0.486,59,1,0,7117562,0.5
5,0,0.721,60,1,1,7117562,0.5
5,0,0.448,61,1,1,7117562,0.5
5,0,0.441,62,1,0,7117562,0.5
5,0,0.418,63,1,0,7117562,0.5
5,0,0.449,64,1,0,7117562,0.5
5,0,0.348,65,1,0,7117562,0.5
5,1,0.339,66,1,1,7117562,0.5
5,0,0.43,67,1,0,7117562,0.5
5,1,0.215,68,1,1,7117562,0.5
5,1,0.378,69,1,1,7117562,0.5
5,1,0.287,70,1,1,7117562,0.5
5,0,0.328,71,1,0,7117562,0.5
5,0,0.377,72,1,0,7117562,0.5
5,1,0.415,73,1,1,7117562,0.5
5,0,0.65,74,1,1,7117562,0.5
5,1,0.485,75,1,0,7117562,0.5
5,0,0.322,76,1,1,7117562,0.5
5,1,0.658,77,1,0,7117562,0.5
5,0,0.312,78,1,0,7117562,0.5
5,0,0.399,79,1,0,7117562,0.5
5,0,0.233,80,1,0,7117562,0.5
5,0,0.579,81,1,1,7117562,0.5
5,1,0.274,82,1,0,7117562,0.5
5,0,0.253,83,1,0,7117562,0.5
5,0,1.368,84,1,1,7117562,0.5
5,1,0.304,85,1,0,7117562,0.5
5,1,0.245,86,1,1,7117562,0.5
5,0,0.472,87,1,1,7117562,0.5
5,1,0.394,88,1,0,7117562,0.5
5,1,0.256,89,1,1,7117562,0.5
5,1,0.211,90,1,0,7117562,0.5
5,1,0.198,91,1,0,7117562,0.5
5,0,0.234,92,1,0,7117562,0.5
5,0,0.224,93,1,0,7117562,0.5
5,1,0.978,94,1,1,7117562,0.5
5,0,0.232,95,1,1,7117562,0.5
5,1,0.702,96,1,0,7117562,0.5
5,1,0.249,97,1,1,7117562,0.5
5,0,0.506,98,1,1,7117562,0.5
5,0,0.232,99,1,1,7117562,0.5
5,1,0.272,100,1,0,7117562,0.5
5,1,0.2,101,1,0,7117562,0.5
5,1,0.489,102,1,0,7117562,0.5
5,0,0.246,103,1,1,7117562,0.5
5,0,0.313,104,1,1,7117562,0.5
5,1,0.836,105,1,1,7117562,0.5
5,1,0.383,106,1,1,7117562,0.5
5,0,0.373,107,1,1,7117562,0.5
5,0,0.571,108,1,0,7117562,0.5
5,1,0.276,109,1,0,7117562,0.5
5,0,0.226,110,1,1,7117562,0.5
5,1,0.223,111,1,0,7117562,0.5
5,1,0.179,112,1,0,7117562,0.5
5,0,0.191,113,1,1,7117562,0.5
5,1,0.501,114,1,0,7117562,0.5
5,0,0.271,115,1,1,7117562,0.5
5,0,0.262,116,1,0,7117562,0.5
5,0,0.257,117,1,0,7117562,0.5
5,1,0.822,118,1,1,7117562,0.5
5,1,0.488,119,1,0,7117562,0.5
5,0,0.25,120,1,1,7117562,0.5
5,1,1.054,121,1,1,7117562,0.5
5,1,0.468,122,1,0,7117562,0.5
5,1,0.233,123,1,1,7117562,0.5
5,0,0.155,124,1,0,7117562,0.5
5,1,0.157,125,1,1,7117562,0.5
5,1,0.205,126,1,1,7117562,0.5
5,0,0.17,127,1,1,7117562,0.5
5,1,0.171,128,1,1,7117562,0.5
5,0,0.262,129,1,1,7117562,0.5
5,1,0.215,130,1,1,7117562,0.5
5,1,0.219,131,1,1,7117562,0.5
5,0,0.189,132,1,0,7117562,0.5
5,0,0.176,133,1,1,7117562,0.5
5,0,0.217,134,1,0,7117562,0.5
5,0,0.461,135,1,0,7117562,0.5
5,1,0.284,136,1,0,7117562,0.5
5,1,0.367,137,1,1,7117562,0.5
5,1,0.182,138,1,0,7117562,0.5
5,1,0.275,139,1,0,7117562,0.5
5,0,0.338,140,1,0,7117562,0.5
5,0,0.467,141,1,0,7117562,0.5
5,0,0.209,142,1,0,7117562,0.5
5,0,0.231,143,1,0,7117562,0.5
5,1,0.232,144,1,1,7117562,0.5
5,0,0.219,145,1,0,7117562,0.5
5,0,0.193,146,1,0,7117562,0.5
5,0,0.434,147,1,0,7117562,0.5
5,0,0.298,148,1,1,7117562,0.5
5,1,0.245,149,1,1,7117562,0.5
5,1,0.248,150,1,1,7117562,0.5
5,1,0.265,151,1,0,7117562,0.5
5,0,0.306,152,1,1,7117562,0.5
5,1,0.226,153,1,1,7117562,0.5
5,1,0.456,154,1,1,7117562,0.5
5,1,0.217,155,1,1,7117562,0.5
5,1,0.217,156,1,1,7117562,0.5
5,1,0.192,157,1,0,7117562,0.5
5,0,0.507,158,1,1,7117562,0.5
5,1,0.706,159,1,1,7117562,0.5
5,1,0.196,160,1,1,7117562,0.5
6,0,0.681,1,1,0,7128276,0.5
6,1,0.546,2,1,1,7128276,0.5
6,1,0.377,3,1,0,7128276,0.5
6,1,0.368,4,1,0,7128276,0.5
6,0,0.399,5,1,0,7128276,0.5
6,1,0.339,6,1,1,7128276,0.5
6,1,0.321,7,1,0,7128276,0.5
6,1,0.329,8,1,0,7128276,0.5
6,1,0.312,9,1,0,7128276,0.5
6,0,0.409,10,1,1,7128276,0.5
6,0,0.286,11,1,1,7128276,0.5
6,1,0.334,12,1,1,7128276,0.5
6,0,0.309,13,1,0,7128276,0.5
6,0,0.278,14,1,1,7128276,0.5
6,0,0.331,15,1,1,7128276,0.5
6,0,0.361,16,1,0,7128276,0.5
6,0,0.319,17,1,1,7128276,0.5
6,0,0.377,18,1,1,7128276,0.5
6,1,0.303,19,1,0,7128276,0.5
6,0,0.414,20,1,1,7128276,0.5
6,0,0.325,21,1,0,7128276,0.5
6,0,0.368,22,1,1,7128276,0.5
6,0,0.405,23,1,1,7128276,0.5
6,0,0.311,24,1,1,7128276,0.5
6,0,0.608,25,1,0,7128276,0.5
6,0,0.347,26,1,1,7128276,0.5
6,0,0.523,27,1,1,7128276,0.5
6,0,0.559,28,1,1,7128276,0.5
6,0,0.334,29,1,0,7128276,0.5
6,0,0.456,30,1,1,7128276,0.5
6,0,0.444,31,1,1,7128276,0.5
6,0,0.339,32,1,1,7128276,0.5
6,0,0.367,33,1,1,7128276,0.5
6,0,0.269,34,1,0,7128276,0.5
6,0,0.567,35,1,1,7128276,0.5
6,0,0.3,36,1,1,7128276,0.5
6,0,0.366,37,1,1,7128276,0.5
6,0,0.368,38,1,0,7128276,0.5
6,0,0.346,39,1,1,7128276,0.5
6,0,0.32,40,1,1,7128276,0.5
6,0,0.418,41,1,1,7128276,0.5
6,1,0.332,42,1,0,7128276,0.5
6,0,0.295,43,1,1,7128276,0.5
6,0,0.467,44,1,0,7128276,0.5
6,0,0.528,45,1,0,7128276,0.5
6,0,0.353,46,1,1,7128276,0.5
6,0,0.292,47,1,1,7128276,0.5
6,0,0.323,48,1,0,7128276,0.5
6,0,0.322,49,1,0,7128276,0.5
6,0,0.309,50,1,1,7128276,0.5
6,0,0.311,51,1,0,7128276,0.5
6,0,0.341,52,1,0,7128276,0.5
6,0,0.262,53,1,0,7128276,0.5
6,0,0.329,54,1,0,7128276,0.5
6,1,0.361,55,1,1,7128276,0.5
6,1,0.272,56,1,1,7128276,0.5
6,1,0.291,57,1,1,7128276,0.5
6,1,0.38,58,1,1,7128276,0.5
6,1,0.616,59,1,1,7128276,0.5
6,1,0.424,60,1,1,7128276,0.5
6,1,0.382,61,1,0,7128276,0.5
6,1,0.29,62,1,1,7128276,0.5
6,1,0.291,63,1,0,7128276,0.5
6,1,0.32,64,1,1,7128276,0.5
6,1,0.31,65,1,1,7128276,0.5
6,1,0.268,66,1,1,7128276,0.5
6,1,0.371,67,1,1,7128276,0.5
6,1,0.293,68,1,1,7128276,0.5
6,1,0.322,69,1,1,7128276,0.5
6,1,0.324,70,1,1,7128276,0.5
6,1,0.463,71,1,0,7128276,0.5
6,1,1.186,72,1,1,7128276,0.5
6,1,0.557,73,1,1,7128276,0.5
6,1,0.473,74,1,0,7128276,0.5
6,1,0.41,75,1,1,7128276,0.5
6,1,0.356,76,1,1,7128276,0.5
6,1,0.45,77,1,1,7128276,0.5
6,1,0.375,78,1,0,7128276,0.5
6,1,0.408,79,1,1,7128276,0.5
6,1,0.429,80,1,0,7128276,0.5
6,1,0.433,81,1,0,7128276,0.5
6,1,0.295,82,1,0,7128276,0.5
6,0,0.328,83,1,0,7128276,0.5
6,0,0.274,84,1,0,7128276,0.5
6,0,0.468,85,1,0,7128276,0.5
6,1,0.36,86,1,0,7128276,0.5
6,1,0.241,87,1,1,7128276,0.5
6,1,0.326,88,1,0,7128276,0.5
6,1,0.6,89,1,1,7128276,0.5
6,1,0.393,90,1,0,7128276,0.5
6,1,0.26,91,1,0,7128276,0.5
6,1,0.291,92,1,0,7128276,0.5
6,1,0.407,93,1,1,7128276,0.5
6,0,0.3,94,1,1,7128276,0.5
6,0,0.345,95,1,0,7128276,0.5
6,0,0.288,96,1,0,7128276,0.5
6,0,0.369,97,1,0,7128276,0.5
6,1,0.309,98,1,1,7128276,0.5
6,1,0.355,99,1,0,7128276,0.5
6,1,0.335,100,1,0,7128276,0.5
6,0,0.662,101,1,1,7128276,0.5
6,1,0.412,102,1,0,7128276,0.5
6,0,0.335,103,1,1,7128276,0.5
6,0,0.692,104,1,0,7128276,0.5
6,1,1.818,105,1,0,7128276,0.5
6,0,0.302,106,1,1,7128276,0.5
6,0,0.409,107,1,1,7128276,0.5
6,0,0.367,108,1,1,7128276,0.5
6,0,0.27,109,1,1,7128276,0.5
6,0,0.337,110,1,1,7128276,0.5
6,0,0.47,111,1,1,7128276,0.5
6,0,0.482,112,1,0,7128276,0.5
6,0,0.328,113,1,1,7128276,0.5
6,0,0.458,114,1,1,7128276,0.5
6,0,0.501,115,1,1,7128276,0.5
6,0,0.818,116,1,1,7128276,0.5
6,0,0.434,117,1,1,7128276,0.5
6,0,0.281,118,1,1,7128276,0.5
6,0,0.504,119,1,1,7128276,0.5
6,0,0.34,120,1,1,7128276,0.5
6,0,0.322,121,1,1,7128276,0.5
6,0,0.437,122,1,0,7128276,0.5
6,0,0.434,123,1,0,7128276,0.5
6,0,0.288,124,1,1,7128276,0.5
6,0,0.292,125,1,0,7128276,0.5
6,0,0.294,126,1,0,7128276,0.5
6,0,0.329,127,1,0,7128276,0.5
6,1,0.32,128,1,0,7128276,0.5
6,1,0.362,129,1,1,7128276,0.5
6,1,0.299,130,1,0,7128276,0.5
6,1,0.298,131,1,1,7128276,0.5
6,1,0.357,132,1,1,7128276,0.5
6,1,0.351,133,1,1,7128276,0.5
6,1,0.37,134,1,1,7128276,0.5
6,1,0.254,135,1,1,7128276,0.5
6,1,0.363,136,1,0,7128276,0.5
6,1,0.341,137,1,1,7128276,0.5
6,1,0.386,138,1,0,7128276,0.5
6,1,0.401,139,1,0,7128276,0.5
6,1,0.358,140,1,1,7128276,0.5
6,1,0.357,141,1,1,7128276,0.5
6,1,0.468,142,1,1,7128276,0.5
6,1,0.608,143,1,1,7128276,0.5
6,1,0.479,144,1,1,7128276,0.5
6,1,0.401,145,1,1,7128276,0.5
6,1,0.304,146,1,0,7128276,0.5
6,1,0.266,147,1,0,7128276,0.5
6,1,0.327,148,1,0,7128276,0.5
6,1,0.314,149,1,1,7128276,0.5
6,1,0.322,150,1,1,7128276,0.5
6,1,0.435,151,1,1,7128276,0.5
6,1,0.384,152,1,0,7128276,0.5
6,1,0.331,153,1,1,7128276,0.5
6,1,0.323,154,1,1,7128276,0.5
6,0,0.34,155,1,0,7128276,0.5
6,0,0.313,156,1,0,7128276,0.5
6,1,0.728,157,1,1,7128276,0.5
6,1,0.404,158,1,1,7128276,0.5
6,1,0.298,159,1,0,7128276,0.5
6,1,0.361,160,1,1,7128276,0.5
7,0,1.192,1,1,1,7110686,0.5
7,1,1.037,2,1,0,7110686,0.5
7,0,0.773,3,1,1,7110686,0.5
7,0,0.81,4,1,1,7110686,0.5
7,0,0.897,5,1,1,7110686,0.5
7,0,0.542,6,1,1,7110686,0.5
7,0,1.03,7,1,1,7110686,0.5
7,0,0.509,8,1,1,7110686,0.5
7,0,0.526,9,1,0,7110686,0.5
7,0,0.725,10,1,0,7110686,0.5
7,1,0.699,11,1,0,7110686,0.5
7,0,1.203,12,1,0,7110686,0.5
7,0,0.78,13,1,1,7110686,0.5
7,0,0.656,14,1,0,7110686,0.5
7,0,0.536,15,1,1,7110686,0.5
7,0,0.623,16,1,1,7110686,0.5
7,0,0.499,17,1,0,7110686,0.5
7,1,0.684,18,1,0,7110686,0.5
7,0,0.529,19,1,1,7110686,0.5
7,0,0.509,20,1,0,7110686,0.5
7,0,0.459,21,1,0,7110686,0.5
7,1,0.436,22,1,0,7110686,0.5
7,0,0.47,23,1,1,7110686,0.5
7,0,0.473,24,1,0,7110686,0.5
7,1,0.607,25,1,0,7110686,0.5
7,0,0.603,26,1,1,7110686,0.5
7,0,0.46,27,1,1,7110686,0.5
7,0,0.339,28,1,1,7110686,0.5
7,0,0.521,29,1,1,7110686,0.5
7,0,0.579,30,1,0,7110686,0.5
7,0,0.524,31,1,1,7110686,0.5
7,1,0.511,32,1,0,7110686,0.5
7,0,0.547,33,1,1,7110686,0.5
7,0,0.481,34,1,1,7110686,0.5
7,0,0.491,35,1,1,7110686,0.5
7,0,0.711,36,1,0,7110686,0.5
7,0,2.23,37,1,0,7110686,0.5
7,0,0.188,38,1,1,7110686,0.5
7,0,0.718,39,1,0,7110686,0.5
7,0,0.393,40,1,1,7110686,0.5
7,1,0.243,41,1,1,7110686,0.5
7,0,0.178,42,1,0,7110686,0.5
7,0,0.383,43,1,0,7110686,0.5
7,0,0.427,44,1,0,7110686,0.5
7,1,0.379,45,1,1,7110686,0.5
7,0,0.575,46,1,1,7110686,0.5
7,0,0.853,47,1,1,7110686,0.5
7,0,0.673,48,1,0,7110686,0.5
7,0,0.633,49,1,0,7110686,0.5
7,0,1.911,50,1,0,7110686,0.5
7,0,0.554,51,1,1,7110686,0.5
7,1,0.862,52,1,1,7110686,0.5
7,1,0.448,53,1,1,7110686,0.5
7,0,0.166,54,1,0,7110686,0.5
7,0,0.312,55,1,0,7110686,0.5
7,1,0.298,56,1,0,7110686,0.5
7,0,0.443,57,1,1,7110686,0.5
7,0,0.335,58,1,1,7110686,0.5
7,0,0.504,59,1,1,7110686,0.5
7,1,0.946,60,1,1,7110686,0.5
7,1,1.27,61,1,1,7110686,0.5
7,0,0.557,62,1,0,7110686,0.5
7,0,1.306,63,1,0,7110686,0.5
7,1,0.181,64,1,0,7110686,0.5
7,1,0.458,65,1,1,7110686,0.5
7,1,0.478,66,1,0,7110686,0.5
7,1,0.267,67,1,1,7110686,0.5
7,1,0.453,68,1,1,7110686,0.5
7,1,0.542,69,1,1,7110686,0.5
7,1,0.427,70,1,1,7110686,0.5
7,0,0.557,71,1,0,7110686,0.5
7,0,0.221,72,1,0,7110686,0.5
7,1,0.604,73,1,1,7110686,0.5
7,1,0.614,74,1,0,7110686,0.5
7,0,0.305,75,1,0,7110686,0.5
7,0,0.965,76,1,1,7110686,0.5
7,0,0.366,77,1,1,7110686,0.5
7,1,0.52,78,1,1,7110686,0.5
7,1,0.388,79,1,1,7110686,0.5
7,0,0.395,80,1,0,7110686,0.5
7,1,0.304,81,1,0,7110686,0.5
7,1,0.465,82,1,1,7110686,0.5
7,1,0.43,83,1,0,7110686,0.5
7,1,0.397,84,1,1,7110686,0.5
7,1,0.482,85,1,0,7110686,0.5
7,1,0.235,86,1,0,7110686,0.5
7,1,0.49,87,1,0,7110686,0.5
7,1,0.446,88,1,0,7110686,0.5
7,1,0.209,89,1,1,7110686,0.5
7,1,0.5,90,1,1,7110686,0.5
7,0,0.785,91,1,1,7110686,0.5
7,0,0.502,92,1,1,7110686,0.5
7,0,0.552,93,1,1,7110686,0.5
7,1,1.637,94,1,0,7110686,0.5
7,1,0.643,95,1,0,7110686,0.5
7,1,0.588,96,1,0,7110686,0.5
7,1,0.433,97,1,1,7110686,0.5
7,1,0.487,98,1,1,7110686,0.5
7,1,0.489,99,1,0,7110686,0.5
7,1,0.453,100,1,0,7110686,0.5
7,0,0.525,101,1,1,7110686,0.5
7,1,0.507,102,1,0,7110686,0.5
7,0,0.534,103,1,1,7110686,0.5
7,0,0.681,104,1,1,7110686,0.5
7,0,0.424,105,1,0,7110686,0.5
7,0,0.464,106,1,1,7110686,0.5
7,1,0.557,107,1,1,7110686,0.5
7,0,0.381,108,1,1,7110686,0.5
7,0,1.293,109,1,1,7110686,0.5
7,0,0.618,110,1,1,7110686,0.5
7,0,0.889,111,1,1,7110686,0.5
7,0,0.595,112,1,0,7110686,0.5
7,1,1.192,113,1,0,7110686,0.5
7,1,1.013,114,1,1,7110686,0.5
7,1,0.207,115,1,0,7110686,0.5
7,0,0.455,116,1,1,7110686,0.5
7,1,1.404,117,1,0,7110686,0.5
7,1,1.323,118,1,0,7110686,0.5
7,0,1.029,119,1,0,7110686,0.5
7,1,1.917,120,1,1,7110686,0.5
7,1,0.962,121,1,1,7110686,0.5
7,1,0.994,122,1,1,7110686,0.5
7,1,0.496,123,1,1,7110686,0.5
7,1,0.467,124,1,1,7110686,0.5
7,1,0.392,125,1,0,7110686,0.5
7,1,0.295,126,1,1,7110686,0.5
7,1,1.044,127,1,0,7110686,0.5
7,0,0.301,128,1,0,7110686,0.5
7,0,1.89,129,1,0,7110686,0.5
7,0,0.387,130,1,1,7110686,0.5
7,0,0.207,131,1,0,7110686,0.5
7,0,1.246,132,1,1,7110686,0.5
7,0,0.284,133,1,0,7110686,0.5
7,1,0.828,134,1,1,7110686,0.5
7,1,0.738,135,1,1,7110686,0.5
7,0,0.344,136,1,0,7110686,0.5
7,1,0.264,137,1,1,7110686,0.5
7,0,0.407,138,1,0,7110686,0.5
7,0,0.288,139,1,0,7110686,0.5
7,1,0.315,140,1,0,7110686,0.5
7,1,0.335,141,1,1,7110686,0.5
7,0,0.506,142,1,1,7110686,0.5
7,1,0.317,143,1,1,7110686,0.5
7,1,0.322,144,1,1,7110686,0.5
7,0,0.31,145,1,1,7110686,0.5
7,1,0.44,146,1,1,7110686,0.5
7,0,0.626,147,1,0,7110686,0.5
7,0,0.31,148,1,1,7110686,0.5
7,1,0.668,149,1,1,7110686,0.5
7,0,0.304,150,1,0,7110686,0.5
7,1,0.244,151,1,0,7110686,0.5
7,0,0.275,152,1,0,7110686,0.5
7,1,0.227,153,1,1,7110686,0.5
7,0,0.408,154,1,0,7110686,0.5
7,1,0.559,155,1,0,7110686,0.5
7,1,0.298,156,1,1,7110686,0.5
7,1,0.347,157,1,0,7110686,0.5
7,0,0.665,158,1,0,7110686,0.5
7,0,0.822,159,1,0,7110686,0.5
7,1,0.531,160,1,1,7110686,0.5
8,0,0.712,1,1,1,7111030,0.5
8,1,0.979,2,1,0,7111030,0.5
8,1,1.143,3,1,1,7111030,0.5
8,0,1.137,4,1,1,7111030,0.5
8,1,1.931,5,1,0,7111030,0.5
8,1,1.353,6,1,0,7111030,0.5
8,1,0.423,7,1,0,7111030,0.5
8,1,2.464,8,1,1,7111030,0.5
8,1,0.797,9,1,0,7111030,0.5
8,1,2.01,10,1,0,7111030,0.5
8,1,1.193,11,1,1,7111030,0.5
8,0,0.62,12,1,1,7111030,0.5
8,0,0.904,13,1,1,7111030,0.5
8,0,0.546,14,1,0,7111030,0.5
8,1,0.621,15,1,0,7111030,0.5
8,0,1.134,16,1,1,7111030,0.5
8,0,1.364,17,1,0,7111030,0.5
8,1,1.063,18,1,0,7111030,0.5
8,0,0.414,19,1,1,7111030,0.5
8,1,0.363,20,1,1,7111030,0.5
8,1,0.512,21,1,0,7111030,0.5
8,0,0.463,22,1,1,7111030,0.5
8,1,0.581,23,1,0,7111030,0.5
8,0,0.407,24,1,1,7111030,0.5
8,0,0.343,25,1,0,7111030,0.5
8,1,0.427,26,1,1,7111030,0.5
8,0,0.95,27,1,1,7111030,0.5
8,1,1.659,28,1,0,7111030,0.5
8,1,1.438,29,1,0,7111030,0.5
8,0,0.415,30,1,1,7111030,0.5
8,0,0.4,31,1,1,7111030,0.5
8,1,0.357,32,1,0,7111030,0.5
8,0,0.373,33,1,0,7111030,0.5
8,0,0.481,34,1,1,7111030,0.5
8,1,0.706,35,1,1,7111030,0.5
8,1,1.232,36,1,0,7111030,0.5
8,1,0.41,37,1,0,7111030,0.5
8,0,0.42,38,1,0,7111030,0.5
8,0,0.464,39,1,1,7111030,0.5
8,0,0.526,40,1,0,7111030,0.5
8,0,0.195,41,1,0,7111030,0.5
8,1,1.415,42,1,1,7111030,0.5
8,1,0.297,43,1,0,7111030,0.5
8,0,0.483,44,1,0,7111030,0.5
8,0,0.225,45,1,0,7111030,0.5
8,1,0.314,46,1,1,7111030,0.5
8,1,0.259,47,1,0,7111030,0.5
8,0,0.305,48,1,0,7111030,0.5
8,0,0.317,49,1,1,7111030,0.5
8,1,0.178,50,1,1,7111030,0.5
8,1,0.396,51,1,1,7111030,0.5
8,1,2.311,52,1,1,7111030,0.5
8,1,0.73,53,1,1,7111030,0.5
8,0,1.547,54,1,1,7111030,0.5
8,1,0.299,55,1,1,7111030,0.5
8,0,0.209,56,1,1,7111030,0.5
8,0,0.396,57,1,0,7111030,0.5
8,1,0.546,58,1,1,7111030,0.5
8,1,0.731,59,1,1,7111030,0.5
8,1,0.502,60,1,1,7111030,0.5
8,0,1.349,61,1,0,7111030,0.5
8,0,0.528,62,1,1,7111030,0.5
8,0,0.391,63,1,1,7111030,0.5
8,0,0.367,64,1,0,7111030,0.5
8,1,0.645,65,1,1,7111030,0.5
8,1,0.5,66,1,1,7111030,0.5
8,1,0.534,67,1,0,7111030,0.5
8,0,0.93,68,1,1,7111030,0.5
8,0,0.437,69,1,0,7111030,0.5
8,0,1.041,70,1,0,7111030,0.5
8,1,0.908,71,1,0,7111030,0.5
8,1,0.536,72,1,1,7111030,0.5
8,1,0.513,73,1,1,7111030,0.5
8,1,0.44,74,1,1,7111030,0.5
8,1,0.288,75,1,1,7111030,0.5
8,0,0.49,76,1,0,7111030,0.5
8,0,0.316,77,1,1,7111030,0.5
8,0,0.496,78,1,0,7111030,0.5
8,0,1.406,79,1,0,7111030,0.5
8,0,1.468,80,1,0,7111030,0.5
8,0,0.434,81,1,1,7111030,0.5
8,0,0.571,82,1,1,7111030,0.5
8,0,0.59,83,1,0,7111030,0.5
8,1,0.646,84,1,1,7111030,0.5
8,0,0.43,85,1,1,7111030,0.5
8,0,0.431,86,1,1,7111030,0.5
8,0,0.597,87,1,0,7111030,0.5
8,1,0.703,88,1,0,7111030,0.5
8,0,1.315,89,1,0,7111030,0.5
8,1,0.825,90,1,0,7111030,0.5
8,0,0.694,91,1,0,7111030,0.5
8,0,2.144,92,1,1,7111030,0.5
8,0,0.802,93,1,1,7111030,0.5
8,1,1.418,94,1,0,7111030,0.5
8,1,1.082,95,1,0,7111030,0.5
8,1,1.176,96,1,0,7111030,0.5
8,0,0.602,97,1,1,7111030,0.5
8,0,0.503,98,1,1,7111030,0.5
8,1,1.388,99,1,0,7111030,0.5
8,1,0.832,100,1,0,7111030,0.5
8,1,1.418,101,1,1,7111030,0.5
8,1,1.029,102,1,0,7111030,0.5
8,0,1.576,103,1,0,7111030,0.5
8,0,0.642,104,1,1,7111030,0.5
8,0,0.609,105,1,1,7111030,0.5
8,1,0.62,106,1,0,7111030,0.5
8,0,1.469,107,1,0,7111030,0.5
8,0,0.905,108,1,1,7111030,0.5
8,1,1.716,109,1,1,7111030,0.5
8,1,0.547,110,1,0,7111030,0.5
8,0,0.937,111,1,0,7111030,0.5
8,1,0.648,112,1,0,7111030,0.5
8,1,0.526,113,1,0,7111030,0.5
8,0,0.963,114,1,1,7111030,0.5
8,0,0.832,115,1,1,7111030,0.5
8,0,0.686,116,1,0,7111030,0.5
8,0,0.837,117,1,1,7111030,0.5
8,1,1.191,118,1,0,7111030,0.5
8,0,0.971,119,1,1,7111030,0.5
8,0,0.537,120,1,0,7111030,0.5
8,0,0.681,121,1,1,7111030,0.5
8,1,2.153,122,1,1,7111030,0.5
8,0,0.651,123,1,1,7111030,0.5
8,0,1.594,124,1,0,7111030,0.5
8,1,0.811,125,1,1,7111030,0.5
8,1,1.415,126,1,0,7111030,0.5
8,0,0.433,127,1,0,7111030,0.5
8,0,0.583,128,1,0,7111030,0.5
8,0,0.368,129,1,0,7111030,0.5
8,1,1.005,130,1,1,7111030,0.5
8,0,1.19,131,1,1,7111030,0.5
8,0,1.073,132,1,0,7111030,0.5
8,1,0.887,133,1,1,7111030,0.5
8,1,1.485,134,1,1,7111030,0.5
8,0,1.308,135,1,1,7111030,0.5
8,1,1.223,136,1,0,7111030,0.5
8,0,1.173,137,1,1,7111030,0.5
8,0,0.825,138,1,1,7111030,0.5
8,0,0.732,139,1,1,7111030,0.5
8,0,1.036,140,1,0,7111030,0.5
8,1,1.34,141,1,1,7111030,0.5
8,1,1.259,142,1,1,7111030,0.5
8,1,0.772,143,1,1,7111030,0.5
8,1,0.497,144,1,1,7111030,0.5
8,1,0.622,145,1,1,7111030,0.5
8,1,0.467,146,1,1,7111030,0.5
8,1,1.461,147,1,1,7111030,0.5
8,1,0.56,148,1,1,7111030,0.5
8,1,0.481,149,1,0,7111030,0.5
8,1,1.068,150,1,1,7111030,0.5
8,1,0.675,151,1,1,7111030,0.5
8,1,1.246,152,1,0,7111030,0.5
8,1,1.345,153,1,1,7111030,0.5
8,1,0.514,154,1,1,7111030,0.5
8,1,0.345,155,1,1,7111030,0.5
8,1,1.184,156,1,1,7111030,0.5
8,0,0.448,157,1,1,7111030,0.5
8,0,0.406,158,1,0,7111030,0.5
8,1,0.844,159,1,1,7111030,0.5
8,1,0.346,160,1,1,7111030,0.5
9,1,2.237,1,1,1,7117079,0.5
9,0,0.922,2,1,0,7117079,0.5
9,1,1.015,3,1,0,7117079,0.5
9,1,1.816,4,1,1,7117079,0.5
9,1,1.63,5,1,0,7117079,0.5
9,0,1.116,6,1,0,7117079,0.5
9,1,0.767,7,1,1,7117079,0.5
9,0,2.037,8,1,0,7117079,0.5
9,0,1.862,9,1,1,7117079,0.5
9,1,1.795,10,1,0,7117079,0.5
9,0,0.972,11,1,1,7117079,0.5
9,0,1.956,12,1,1,7117079,0.5
9,0,1.13,13,1,1,7117079,0.5
9,0,0.826,14,1,1,7117079,0.5
9,1,1.077,15,1,0,7117079,0.5
9,1,1.601,16,1,0,7117079,0.5
9,0,0.932,17,1,1,7117079,0.5
9,1,0.971,18,1,0,7117079,0.5
9,0,0.725,19,1,1,7117079,0.5
9,0,0.732,20,1,0,7117079,0.5
9,0,1.349,21,1,0,7117079,0.5
9,0,0.407,22,1,0,7117079,0.5
9,0,1.126,23,1,1,7117079,0.5
9,0,0.79,24,1,1,7117079,0.5
9,0,0.852,25,1,1,7117079,0.5
9,0,0.851,26,1,0,7117079,0.5
9,0,1.054,27,1,0,7117079,0.5
9,0,0.771,28,1,0,7117079,0.5
9,0,0.836,29,1,0,7117079,0.5
9,1,1.291,30,1,0,7117079,0.5
9,1,0.897,31,1,0,7117079,0.5
9,1,1.054,32,1,0,7117079,0.5
9,1,0.614,33,1,0,7117079,0.5
9,0,0.869,34,1,1,7117079,0.5
9,1,0.436,35,1,1,7117079,0.5
9,1,0.686,36,1,0,7117079,0.5
9,0,1.084,37,1,1,7117079,0.5
9,1,1.986,38,1,0,7117079,0.5
9,0,1.421,39,1,1,7117079,0.5
9,0,0.648,40,1,0,7117079,0.5
9,1,1.722,41,1,0,7117079,0.5
9,0,1.06,42,1,1,7117079,0.5
9,1,1.475,43,1,1,7117079,0.5
9,0,0.766,44,1,0,7117079,0.5
9,1,1.188,45,1,0,7117079,0.5
9,0,0.956,46,1,1,7117079,0.5
9,0,0.898,47,1,1,7117079,0.5
9,0,2.307,48,1,0,7117079,0.5
9,0,0.868,49,1,0,7117079,0.5
9,1,1.336,50,1,1,7117079,0.5
9,1,1.154,51,1,1,7117079,0.5
9,0,1.684,52,1,0,7117079,0.5
9,1,1.61,53,1,1,7117079,0.5
9,1,1.653,54,1,1,7117079,0.5
9,1,1.454,55,1,1,7117079,0.5
9,0,1.514,56,1,1,7117079,0.5
9,1,1.302,57,1,1,7117079,0.5
9,1,1.099,58,1,0,7117079,0.5
9,1,1.592,59,1,0,7117079,0.5
9,1,1.375,60,1,1,7117079,0.5
9,1,1.468,61,1,1,7117079,0.5
9,1,1.502,62,1,0,7117079,0.5
9,1,0.94,63,1,1,7117079,0.5
9,0,1.255,64,1,0,7117079,0.5
9,1,1.104,65,1,1,7117079,0.5
9,1,0.901,66,1,0,7117079,0.5
9,1,0.743,67,1,1,7117079,0.5
9,1,0.962,68,1,0,7117079,0.5
9,0,0.398,69,1,0,7117079,0.5
9,0,0.735,70,1,0,7117079,0.5
9,1,1.254,71,1,1,7117079,0.5
9,0,1.356,72,1,0,7117079,0.5
9,0,0.957,73,1,0,7117079,0.5
9,1,0.864,74,1,1,7117079,0.5
9,1,0.279,75,1,1,7117079,0.5
9,0,0.454,76,1,1,7117079,0.5
9,0,1.027,77,1,0,7117079,0.5
9,0,0.628,78,1,0,7117079,0.5
9,1,0.915,79,1,1,7117079,0.5
9,0,1.153,80,1,0,7117079,0.5
9,1,0.797,81,1,1,7117079,0.5
9,1,1.253,82,1,0,7117079,0.5
9,0,1.216,83,1,1,7117079,0.5
9,1,1.081,84,1,0,7117079,0.5
9,0,0.764,85,1,1,7117079,0.5
9,1,1.09,86,1,0,7117079,0.5
9,1,1.609,87,1,0,7117079,0.5
9,1,0.861,88,1,0,7117079,0.5
9,1,0.745,89,1,0,7117079,0.5
9,0,1.591,90,1,1,7117079,0.5
9,1,1.027,91,1,0,7117079,0.5
9,1,0.999,92,1,1,7117079,0.5
9,1,2.026,93,1,0,7117079,0.5
9,1,0.677,94,1,0,7117079,0.5
9,0,1.003,95,1,1,7117079,0.5
9,0,0.988,96,1,0,7117079,0.5
9,1,0.728,97,1,0,7117079,0.5
9,1,0.715,98,1,1,7117079,0.5
9,0,0.756,99,1,1,7117079,0.5
9,0,1.017,100,1,0,7117079,0.5
9,0,1.154,101,1,0,7117079,0.5
9,0,0.855,102,1,0,7117079,0.5
9,0,0.845,103,1,1,7117079,0.5
9,1,0.368,104,1,0,7117079,0.5
9,0,0.778,105,1,1,7117079,0.5
9,0,1.168,106,1,1,7117079,0.5
9,1,1.923,107,1,0,7117079,0.5
9,0,1.054,108,1,1,7117079,0.5
9,0,2.159,109,1,1,7117079,0.5
9,1,1.566,110,1,1,7117079,0.5
9,1,1.058,111,1,1,7117079,0.5
9,1,0.732,112,1,0,7117079,0.5
9,1,1.093,113,1,0,7117079,0.5
9,0,1.24,114,1,1,7117079,0.5
9,0,1.521,115,1,0,7117079,0.5
9,0,1.55,116,1,1,7117079,0.5
9,0,1.96,117,1,1,7117079,0.5
9,0,1.206,118,1,0,7117079,0.5
9,1,0.841,119,1,0,7117079,0.5
9,1,1.282,120,1,1,7117079,0.5
9,0,0.911,121,1,0,7117079,0.5
9,1,1.305,122,1,0,7117079,0.5
9,0,0.962,123,1,0,7117079,0.5
9,1,0.852,124,1,1,7117079,0.5
9,1,1.19,125,1,1,7117079,0.5
9,1,1.248,126,1,1,7117079,0.5
9,1,1.023,127,1,1,7117079,0.5
9,0,1.454,128,1,1,7117079,0.5
9,1,1.003,129,1,1,7117079,0.5
9,1,0.695,130,1,1,7117079,0.5
9,1,0.861,131,1,1,7117079,0.5
9,1,0.755,132,1,1,7117079,0.5
9,1,0.861,133,1,0,7117079,0.5
9,1,0.733,134,1,0,7117079,0.5
9,0,0.637,135,1,0,7117079,0.5
9,0,0.932,136,1,1,7117079,0.5
9,0,1.052,137,1,0,7117079,0.5
9,1,1.051,138,1,1,7117079,0.5
9,1,1.557,139,1,1,7117079,0.5
9,0,1.233,140,1,1,7117079,0.5
9,1,1.245,141,1,1,7117079,0.5
9,0,1.65,142,1,0,7117079,0.5
9,1,1.463,143,1,1,7117079,0.5
9,1,1.991,144,1,1,7117079,0.5
9,1,1.623,145,1,1,7117079,0.5
9,1,0.782,146,1,0,7117079,0.5
9,0,1.062,147,1,0,7117079,0.5
9,0,0.718,148,1,1,7117079,0.5
9,1,1.058,149,1,1,7117079,0.5
9,1,1.586,150,1,0,7117079,0.5
9,0,0.805,151,1,1,7117079,0.5
9,0,0.504,152,1,1,7117079,0.5
9,0,1.001,153,1,0,7117079,0.5
9,0,0.616,154,1,0,7117079,0.5
9,1,0.989,155,1,1,7117079,0.5
9,0,0.817,156,1,0,7117079,0.5
9,1,0.545,157,1,1,7117079,0.5
9,0,0.562,158,1,0,7117079,0.5
9,0,0.366,159,1,1,7117079,0.5
9,0,0.588,160,1,0,7117079,0.5
10,0,1.868,1,1,0,7116041,0.5
10,0,1.064,2,1,0,7116041,0.5
10,0,1.013,3,1,0,7116041,0.5
10,1,2.031,4,1,0,7116041,0.5
10,1,0.781,5,1,0,7116041,0.5
10,1,1.691,6,1,0,7116041,0.5
10,0,1.004,7,1,1,7116041,0.5
10,1,0.415,8,1,0,7116041,0.5
10,1,1.11,9,1,0,7116041,0.5
10,0,1.033,10,1,1,7116041,0.5
10,1,0.98,11,1,0,7116041,0.5
10,0,0.304,12,1,1,7116041,0.5
10,1,1.053,13,1,0,7116041,0.5
10,0,1.115,14,1,0,7116041,0.5
10,1,0.946,15,1,1,7116041,0.5
10,1,0.464,16,1,0,7116041,0.5
10,1,0.44,17,1,0,7116041,0.5
10,0,2.236,18,1,1,7116041,0.5
10,0,0.507,19,1,1,7116041,0.5
10,0,0.244,20,1,1,7116041,0.5
10,0,0.282,21,1,1,7116041,0.5
10,1,0.251,22,1,0,7116041,0.5
10,1,0.197,23,1,0,7116041,0.5
10,1,1.899,24,1,0,7116041,0.5
10,0,0.392,25,1,0,7116041,0.5
10,0,2.181,26,1,0,7116041,0.5
10,0,0.3,27,1,0,7116041,0.5
10,1,0.955,28,1,0,7116041,0.5
10,1,0.215,29,1,0,7116041,0.5
10,1,2.089,30,1,0,7116041,0.5
10,0,0.259,31,1,0,7116041,0.5
10,0,0.446,32,1,0,7116041,0.5
10,1,0.511,33,1,1,7116041,0.5
10,0,1.795,34,1,0,7116041,0.5
10,1,0.516,35,1,1,7116041,0.5
10,1,0.404,36,1,1,7116041,0.5
10,1,0.656,37,1,1,7116041,0.5
10,0,0.989,38,1,0,7116041,0.5
10,0,0.838,39,1,1,7116041,0.5
10,0,0.35,40,1,1,7116041,0.5
10,0,0.729,41,1,0,7116041,0.5
10,0,2.099,42,1,1,7116041,0.5
10,1,0.341,43,1,1,7116041,0.5
10,0,0.742,44,1,0,7116041,0.5
10,1,1.154,45,1,1,7116041,0.5
10,1,0.481,46,1,1,7116041,0.5
10,0,0.877,47,1,0,7116041,0.5
10,1,0.79,48,1,1,7116041,0.5
10,0,2.43,49,1,1,7116041,0.5
10,1,0.343,50,1,1,7116041,0.5
10,1,0.574,51,1,0,7116041,0.5
10,1,0.343,52,1,1,7116041,0.5
10,0,1.566,53,1,0,7116041,0.5
10,1,1.432,54,1,1,7116041,0.5
10,0,1.36,55,1,0,7116041,0.5
10,0,0.996,56,1,1,7116041,0.5
10,1,1.823,57,1,1,7116041,0.5
10,0,0.653,58,1,0,7116041,0.5
10,0,1.251,59,1,0,7116041,0.5
10,1,1.541,60,1,0,7116041,0.5
10,0,1.203,61,1,0,7116041,0.5
10,1,0.541,62,1,0,7116041,0.5
10,0,1.898,63,1,0,7116041,0.5
10,0,0.516,64,1,0,7116041,0.5
10,1,0.33,65,1,0,7116041,0.5
10,0,0.258,66,1,0,7116041,0.5
10,0,0.3,67,1,0,7116041,0.5
10,1,0.387,68,1,0,7116041,0.5
10,1,0.641,69,1,0,7116041,0.5
10,0,0.401,70,1,1,7116041,0.5
10,0,0.871,71,1,0,7116041,0.5
10,1,0.864,72,1,0,7116041,0.5
10,1,0.398,73,1,0,7116041,0.5
10,0,1.056,74,1,0,7116041,0.5
10,1,0.448,75,1,1,7116041,0.5
10,0,0.296,76,1,1,7116041,0.5
10,1,0.313,77,1,1,7116041,0.5
10,0,0.636,78,1,0,7116041,0.5
10,1,1.133,79,1,1,7116041,0.5
10,1,0.606,80,1,1,7116041,0.5
10,0,0.336,81,1,1,7116041,0.5
10,1,0.379,82,1,0,7116041,0.5
10,1,0.537,83,1,1,7116041,0.5
10,0,0.379,84,1,1,7116041,0.5
10,1,1.126,85,1,0,7116041,0.5
10,1,1.206,86,1,1,7116041,0.5
10,1,1.298,87,1,1,7116041,0.5
10,0,0.395,88,1,0,7116041,0.5
10,1,1.607,89,1,0,7116041,0.5
10,1,0.198,90,1,1,7116041,0.5
10,0,0.558,91,1,1,7116041,0.5
10,0,0.876,92,1,1,7116041,0.5
10,1,1.996,93,1,1,7116041,0.5
10,0,0.215,94,1,0,7116041,0.5
10,1,1.085,95,1,0,7116041,0.5
10,0,0.578,96,1,1,7116041,0.5
10,0,0.784,97,1,1,7116041,0.5
10,1,0.687,98,1,0,7116041,0.5
10,0,0.413,99,1,1,7116041,0.5
10,0,1.408,100,1,1,7116041,0.5
10,0,1.603,101,1,0,7116041,0.5
10,1,0.413,102,1,0,7116041,0.5
10,1,0.371,103,1,0,7116041,0.5
10,0,0.811,104,1,1,7116041,0.5
10,1,0.557,105,1,0,7116041,0.5
10,1,0.409,106,1,0,7116041,0.5
10,0,0.453,107,1,1,7116041,0.5
10,0,0.441,108,1,1,7116041,0.5
10,1,0.336,109,1,1,7116041,0.5
10,1,0.894,110,1,0,7116041,0.5
10,1,1.024,111,1,1,7116041,0.5
10,1,2.444,112,1,1,7116041,0.5
10,0,0.733,113,1,1,7116041,0.5
10,1,1.123,114,1,1,7116041,0.5
10,1,0.217,115,1,1,7116041,0.5
10,0,0.407,116,1,1,7116041,0.5
10,0,0.969,117,1,1,7116041,0.5
10,0,1.891,118,1,1,7116041,0.5
10,0,1.038,119,1,0,7116041,0.5
10,0,1.157,120,1,0,7116041,0.5
10,1,1.703,121,1,0,7116041,0.5
10,0,0.558,122,1,1,7116041,0.5
10,1,0.743,123,1,1,7116041,0.5
10,1,0.517,124,1,1,7116041,0.5
10,1,1.846,125,1,0,7116041,0.5
10,0,0.3,126,1,1,7116041,0.5
10,1,0.248,127,1,1,7116041,0.5
10,1,0.219,128,1,1,7116041,0.5
10,0,0.651,129,1,0,7116041,0.5
10,0,0.311,130,1,1,7116041,0.5
10,1,2.178,131,1,1,7116041,0.5
10,0,2.071,132,1,0,7116041,0.5
10,0,0.633,133,1,0,7116041,0.5
10,0,0.599,134,1,1,7116041,0.5
10,0,0.435,135,1,0,7116041,0.5
10,0,0.765,136,1,1,7116041,0.5
10,0,0.558,137,1,0,7116041,0.5
10,1,1.134,138,1,0,7116041,0.5
10,0,0.396,139,1,0,7116041,0.5
10,1,1.627,140,1,1,7116041,0.5
10,0,1.06,141,1,1,7116041,0.5
10,0,0.602,142,1,0,7116041,0.5
10,0,0.39,143,1,0,7116041,0.5
10,1,1.958,144,1,0,7116041,0.5
10,0,0.21,145,1,1,7116041,0.5
10,0,0.35,146,1,1,7116041,0.5
10,1,2.238,147,1,0,7116041,0.5
10,1,0.499,148,1,1,7116041,0.5
10,0,0.265,149,1,1,7116041,0.5
10,1,1.095,150,1,0,7116041,0.5
10,1,0.959,151,1,1,7116041,0.5
10,1,1.089,152,1,0,7116041,0.5
10,0,0.754,153,1,1,7116041,0.5
10,1,0.895,154,1,1,7116041,0.5
10,0,0.208,155,1,1,7116041,0.5
10,0,0.64,156,1,0,7116041,0.5
10,1,0.583,157,1,1,7116041,0.5
10,1,0.45,158,1,1,7116041,0.5
10,1,1.756,159,1,1,7116041,0.5
10,1,1.077,160,1,1,7116041,0.5
11,1,0.259,1,1,1,7079253,0.5
11,1,0.824,2,1,0,7079253,0.5
11,1,0.519,3,1,0,7079253,0.5
11,1,1.027,4,1,1,7079253,0.5
11,1,1.191,5,1,0,7079253,0.5
11,1,0.585,6,1,1,7079253,0.5
11,1,0.367,7,1,0,7079253,0.5
11,1,0.549,8,1,0,7079253,0.5
11,1,0.882,9,1,0,7079253,0.5
11,1,0.719,10,1,0,7079253,0.5
11,1,0.444,11,1,0,7079253,0.5
11,1,0.412,12,1,1,7079253,0.5
11,1,1.96,13,1,1,7079253,0.5
11,0,2.361,14,1,0,7079253,0.5
11,1,1.268,15,1,0,7079253,0.5
11,1,1.026,16,1,1,7079253,0.5
11,1,0.795,17,1,0,7079253,0.5
11,0,1.953,18,1,1,7079253,0.5
11,1,0.942,19,1,1,7079253,0.5
11,0,1.868,20,1,0,7079253,0.5
11,0,0.511,21,1,1,7079253,0.5
11,0,0.461,22,1,1,7079253,0.5
11,1,0.424,23,1,1,7079253,0.5
11,1,1.215,24,1,0,7079253,0.5
11,1,2.262,25,1,0,7079253,0.5
11,1,0.595,26,1,1,7079253,0.5
11,0,0.432,27,1,1,7079253,0.5
11,0,0.479,28,1,1,7079253,0.5
11,1,0.585,29,1,0,7079253,0.5
11,1,1.24,30,1,0,7079253,0.5
11,1,0.787,31,1,0,7079253,0.5
11,1,1.863,32,1,1,7079253,0.5
11,1,0.749,33,1,0,7079253,0.5
11,0,0.284,34,1,1,7079253,0.5
11,0,1.453,35,1,1,7079253,0.5
11,0,0.575,36,1,1,7079253,0.5
11,1,0.455,37,1,1,7079253,0.5
11,0,0.771,38,1,1,7079253,0.5
11,0,0.643,39,1,1,7079253,0.5
11,0,0.479,40,1,1,7079253,0.5
11,1,0.586,41,1,1,7079253,0.5
11,1,1.212,42,1,0,7079253,0.5
11,0,0.313,43,1,0,7079253,0.5
11,0,0.55,44,1,0,7079253,0.5
11,1,0.642,45,1,0,7079253,0.5
11,0,0.336,46,1,1,7079253,0.5
11,1,0.531,47,1,1,7079253,0.5
11,1,0.396,48,1,0,7079253,0.5
11,1,2.006,49,1,1,7079253,0.5
11,0,0.399,50,1,0,7079253,0.5
11,0,0.528,51,1,0,7079253,0.5
11,0,0.342,52,1,0,7079253,0.5
11,0,0.537,53,1,0,7079253,0.5
11,0,2.143,54,1,0,7079253,0.5
11,0,0.96,55,1,1,7079253,0.5
11,1,0.748,56,1,1,7079253,0.5
11,1,0.435,57,1,1,7079253,0.5
11,1,0.522,58,1,1,7079253,0.5
11,1,0.404,59,1,1,7079253,0.5
11,1,0.692,60,1,1,7079253,0.5
11,0,0.435,61,1,0,7079253,0.5
11,0,0.78,62,1,0,7079253,0.5
11,0,0.879,63,1,1,7079253,0.5
11,1,0.947,64,1,1,7079253,0.5
11,1,0.527,65,1,1,7079253,0.5
11,1,0.333,66,1,0,7079253,0.5
11,0,1.476,67,1,1,7079253,0.5
11,1,0.558,68,1,1,7079253,0.5
11,1,0.515,69,1,1,7079253,0.5
11,0,1.503,70,1,1,7079253,0.5
11,1,0.577,71,1,1,7079253,0.5
11,1,0.435,72,1,1,7079253,0.5
11,0,0.533,73,1,1,7079253,0.5
11,1,0.38,74,1,1,7079253,0.5
11,1,0.544,75,1,1,7079253,0.5
11,0,0.306,76,1,0,7079253,0.5
11,1,0.282,77,1,1,7079253,0.5
11,1,0.588,78,1,0,7079253,0.5
11,1,0.404,79,1,1,7079253,0.5
11,1,0.458,80,1,0,7079253,0.5
11,1,0.779,81,1,0,7079253,0.5
11,0,1.23,82,1,0,7079253,0.5
11,1,1.536,83,1,1,7079253,0.5
11,0,0.688,84,1,1,7079253,0.5
11,1,0.34,85,1,0,7079253,0.5
11,0,0.416,86,1,1,7079253,0.5
11,0,1.554,87,1,1,7079253,0.5
11,1,1.126,88,1,0,7079253,0.5
11,1,0.833,89,1,1,7079253,0.5
11,0,0.368,90,1,1,7079253,0.5
11,0,0.296,91,1,1,7079253,0.5
11,1,0.471,92,1,1,7079253,0.5
11,0,0.49,93,1,0,7079253,0.5
11,0,2.253,94,1,0,7079253,0.5
11,0,1.301,95,1,0,7079253,0.5
11,0,0.744,96,1,1,7079253,0.5
11,1,0.402,97,1,1,7079253,0.5
11,1,0.431,98,1,0,7079253,0.5
11,1,0.49,99,1,0,7079253,0.5
11,0,0.493,100,1,1,7079253,0.5
11,1,0.622,101,1,0,7079253,0.5
11,1,0.53,102,1,0,7079253,0.5
11,1,2.106,103,1,0,7079253,0.5
11,1,0.883,104,1,1,7079253,0.5
11,0,1.467,105,1,1,7079253,0.5
11,0,0.352,106,1,1,7079253,0.5
11,0,0.439,107,1,1,7079253,0.5
11,0,0.454,108,1,1,7079253,0.5
11,0,0.34,109,1,1,7079253,0.5
11,0,0.398,110,1,0,7079253,0.5
11,1,1.607,111,1,0,7079253,0.5
11,0,0.624,112,1,1,7079253,0.5
11,0,0.443,113,1,0,7079253,0.5
11,0,0.492,114,1,1,7079253,0.5
11,0,0.333,115,1,1,7079253,0.5
11,1,0.475,116,1,0,7079253,0.5
11,1,0.901,117,1,1,7079253,0.5
11,0,1.742,118,1,1,7079253,0.5
11,0,0.327,119,1,1,7079253,0.5
11,0,0.417,120,1,1,7079253,0.5
11,1,0.924,121,1,0,7079253,0.5
11,1,0.422,122,1,1,7079253,0.5
11,0,1.319,123,1,0,7079253,0.5
11,0,0.516,124,1,1,7079253,0.5
11,0,0.352,125,1,0,7079253,0.5
11,0,1.099,126,1,1,7079253,0.5
11,1,0.45,127,1,0,7079253,0.5
11,1,0.813,128,1,1,7079253,0.5
11,0,0.457,129,1,0,7079253,0.5
11,0,1.438,130,1,0,7079253,0.5
11,0,0.509,131,1,1,7079253,0.5
11,0,0.432,132,1,0,7079253,0.5
11,1,0.448,133,1,1,7079253,0.5
11,1,0.736,134,1,1,7079253,0.5
11,0,0.675,135,1,0,7079253,0.5
11,1,1.784,136,1,1,7079253,0.5
11,1,0.494,137,1,1,7079253,0.5
11,1,0.522,138,1,1,7079253,0.5
11,0,0.527,139,1,0,7079253,0.5
11,0,1.627,140,1,0,7079253,0.5
11,1,0.162,141,1,1,7079253,0.5
11,1,0.899,142,1,1,7079253,0.5
11,1,1.338,143,1,0,7079253,0.5
11,1,0.599,144,1,1,7079253,0.5
11,1,1.472,145,1,1,7079253,0.5
11,0,0.952,146,1,0,7079253,0.5
11,1,0.48,147,1,1,7079253,0.5
11,0,0.477,148,1,0,7079253,0.5
11,0,0.439,149,1,1,7079253,0.5
11,1,0.287,150,1,1,7079253,0.5
11,1,0.337,151,1,1,7079253,0.5
11,1,0.445,152,1,0,7079253,0.5
11,1,0.886,153,1,0,7079253,0.5
11,0,0.963,154,1,0,7079253,0.5
11,1,0.425,155,1,0,7079253,0.5
11,1,1.921,156,1,0,7079253,0.5
11,1,1.248,157,1,1,7079253,0.5
11,0,2.093,158,1,0,7079253,0.5
11,0,0.901,159,1,0,7079253,0.5
11,1,0.923,160,1,1,7079253,0.5
12,1,0.606,1,1,1,7080170,0.5
12,1,1.011,2,1,1,7080170,0.5
12,1,0.678,3,1,1,7080170,0.5
12,1,0.437,4,1,0,7080170,0.5
12,1,0.56,5,1,1,7080170,0.5
12,0,0.634,6,1,1,7080170,0.5
12,1,0.851,7,1,0,7080170,0.5
12,1,1.029,8,1,0,7080170,0.5
12,1,0.561,9,1,0,7080170,0.5
12,0,1.005,10,1,1,7080170,0.5
12,1,0.509,11,1,1,7080170,0.5
12,0,1.38,12,1,1,7080170,0.5
12,0,0.534,13,1,1,7080170,0.5
12,0,1.422,14,1,1,7080170,0.5
12,0,0.523,15,1,1,7080170,0.5
12,0,0.564,16,1,0,7080170,0.5
12,0,0.498,17,1,1,7080170,0.5
12,0,0.338,18,1,1,7080170,0.5
12,0,0.457,19,1,1,7080170,0.5
12,0,0.647,20,1,1,7080170,0.5
12,0,0.782,21,1,1,7080170,0.5
12,0,0.478,22,1,1,7080170,0.5
12,0,0.301,23,1,1,7080170,0.5
12,0,0.746,24,1,0,7080170,0.5
12,0,0.671,25,1,1,7080170,0.5
12,0,0.377,26,1,0,7080170,0.5
12,0,0.605,27,1,1,7080170,0.5
12,0,0.755,28,1,0,7080170,0.5
12,0,0.425,29,1,1,7080170,0.5
12,0,0.995,30,1,1,7080170,0.5
12,0,0.592,31,1,1,7080170,0.5
12,0,0.672,32,1,1,7080170,0.5
12,0,0.61,33,1,0,7080170,0.5
12,0,0.428,34,1,0,7080170,0.5
12,0,0.403,35,1,0,7080170,0.5
12,1,0.35,36,1,0,7080170,0.5
12,1,0.381,37,1,0,7080170,0.5
12,0,0.89,38,1,0,7080170,0.5
12,1,0.967,39,1,0,7080170,0.5
12,0,0.798,40,1,1,7080170,0.5
12,0,0.463,41,1,1,7080170,0.5
12,0,0.277,42,1,0,7080170,0.5
12,0,0.439,43,1,1,7080170,0.5
12,0,0.723,44,1,0,7080170,0.5
12,0,0.162,45,1,1,7080170,0.5
12,0,0.29,46,1,0,7080170,0.5
12,0,0.864,47,1,0,7080170,0.5
12,1,0.289,48,1,1,7080170,0.5
12,1,0.376,49,1,0,7080170,0.5
12,0,0.208,50,1,0,7080170,0.5
12,0,0.587,51,1,1,7080170,0.5
12,1,0.363,52,1,1,7080170,0.5
12,0,0.755,53,1,0,7080170,0.5
12,1,0.378,54,1,1,7080170,0.5
12,1,0.444,55,1,1,7080170,0.5
12,1,0.502,56,1,1,7080170,0.5
12,1,0.326,57,1,0,7080170,0.5
12,1,0.479,58,1,1,7080170,0.5
12,1,0.362,59,1,1,7080170,0.5
12,1,0.501,60,1,0,7080170,0.5
12,1,0.583,61,1,1,7080170,0.5
12,1,0.404,62,1,0,7080170,0.5
12,1,0.385,63,1,1,7080170,0.5
12,1,0.369,64,1,1,7080170,0.5
12,1,0.304,65,1,1,7080170,0.5
12,1,0.531,66,1,1,7080170,0.5
12,1,0.328,67,1,0,7080170,0.5
12,1,0.481,68,1,1,7080170,0.5
12,1,0.376,69,1,1,7080170,0.5
12,1,0.609,70,1,1,7080170,0.5
12,1,0.265,71,1,1,7080170,0.5
12,1,0.385,72,1,1,7080170,0.5
12,1,0.349,73,1,0,7080170,0.5
12,1,0.397,74,1,0,7080170,0.5
12,1,0.581,75,1,1,7080170,0.5
12,1,0.461,76,1,1,7080170,0.5
12,1,0.435,77,1,1,7080170,0.5
12,1,0.644,78,1,0,7080170,0.5
12,1,0.617,79,1,0,7080170,0.5
12,0,1.039,80,1,0,7080170,0.5
12,1,0.581,81,1,0,7080170,0.5
12,1,1.532,82,1,0,7080170,0.5
12,1,0.451,83,1,1,7080170,0.5
12,1,0.726,84,1,0,7080170,0.5
12,0,0.69,85,1,1,7080170,0.5
12,0,0.441,86,1,0,7080170,0.5
12,0,0.324,87,1,0,7080170,0.5
12,1,0.866,88,1,1,7080170,0.5
12,1,0.741,89,1,0,7080170,0.5
12,0,0.371,90,1,1,7080170,0.5
12,0,0.363,91,1,1,7080170,0.5
12,0,0.335,92,1,1,7080170,0.5
12,0,0.313,93,1,0,7080170,0.5
12,0,0.276,94,1,1,7080170,0.5
12,0,0.36,95,1,1,7080170,0.5
12,0,0.648,96,1,1,7080170,0.5
12,0,0.401,97,1,1,7080170,0.5
12,0,0.667,98,1,1,7080170,0.5
12,0,0.442,99,1,1,7080170,0.5
12,0,0.333,100,1,1,7080170,0.5
12,0,0.334,101,1,0,7080170,0.5
12,0,0.41,102,1,1,7080170,0.5
12,0,0.54,103,1,0,7080170,0.5
12,0,0.372,104,1,1,7080170,0.5
12,0,0.374,105,1,1,7080170,0.5
12,0,0.325,106,1,1,7080170,0.5
12,0,0.387,107,1,0,7080170,0.5
12,0,0.286,108,1,1,7080170,0.5
12,0,0.283,109,1,1,7080170,0.5
12,0,0.407,110,1,1,7080170,0.5
12,0,0.597,111,1,0,7080170,0.5
12,0,0.445,112,1,1,7080170,0.5
12,0,0.533,113,1,0,7080170,0.5
12,0,0.337,114,1,1,7080170,0.5
12,0,0.553,115,1,1,7080170,0.5
12,0,0.326,116,1,0,7080170,0.5
12,0,0.316,117,1,1,7080170,0.5
12,0,0.502,118,1,1,7080170,0.5
12,0,0.37,119,1,1,7080170,0.5
12,0,0.303,120,1,0,7080170,0.5
12,0,0.385,121,1,0,7080170,0.5
12,0,0.287,122,1,1,7080170,0.5
12,0,0.496,123,1,0,7080170,0.5
12,1,0.559,124,1,0,7080170,0.5
12,1,0.458,125,1,1,7080170,0.5
12,1,0.467,126,1,1,7080170,0.5
12,1,0.397,127,1,0,7080170,0.5
12,1,0.287,128,1,1,7080170,0.5
12,1,0.508,129,1,1,7080170,0.5
12,1,0.374,130,1,1,7080170,0.5
12,1,0.792,131,1,0,7080170,0.5
12,1,0.26,132,1,1,7080170,0.5
12,1,0.492,133,1,0,7080170,0.5
12,1,0.351,134,1,1,7080170,0.5
12,1,0.44,135,1,1,7080170,0.5
12,1,0.276,136,1,1,7080170,0.5
12,1,0.53,137,1,1,7080170,0.5
12,1,0.275,138,1,1,7080170,0.5
12,1,0.309,139,1,0,7080170,0.5
12,1,0.327,140,1,0,7080170,0.5
12,1,0.293,141,1,1,7080170,0.5
12,1,0.335,142,1,0,7080170,0.5
12,0,0.41,143,1,1,7080170,0.5
12,0,0.402,144,1,0,7080170,0.5
12,1,0.378,145,1,1,7080170,0.5
12,1,0.942,146,1,1,7080170,0.5
12,1,0.394,147,1,1,7080170,0.5
12,1,0.668,148,1,1,7080170,0.5
12,1,0.312,149,1,1,7080170,0.5
12,1,0.394,150,1,1,7080170,0.5
12,1,0.426,151,1,1,7080170,0.5
12,1,0.296,152,1,1,7080170,0.5
12,1,0.295,153,1,1,7080170,0.5
12,1,0.421,154,1,1,7080170,0.5
12,1,0.385,155,1,0,7080170,0.5
12,1,0.489,156,1,1,7080170,0.5
12,1,0.411,157,1,0,7080170,0.5
12,1,0.973,158,1,1,7080170,0.5
12,1,0.487,159,1,0,7080170,0.5
12,0,0.383,160,1,0,7080170,0.5
13,1,1.723,1,1,0,7122774,0.5
13,1,0.761,2,1,0,7122774,0.5
13,0,2.293,3,1,0,7122774,0.5
13,0,1.631,4,1,0,7122774,0.5
13,1,1.344,5,1,0,7122774,0.5
13,1,2.277,6,1,1,7122774,0.5
13,0,1.42,7,1,1,7122774,0.5
13,1,0.868,8,1,1,7122774,0.5
13,0,1.01,9,1,0,7122774,0.5
13,1,1.053,10,1,1,7122774,0.5
13,0,0.554,11,1,1,7122774,0.5
13,0,0.612,12,1,0,7122774,0.5
13,1,0.748,13,1,0,7122774,0.5
13,1,1.511,14,1,0,7122774,0.5
13,0,1.697,15,1,0,7122774,0.5
13,1,0.406,16,1,0,7122774,0.5
13,0,1.231,17,1,0,7122774,0.5
13,0,0.832,18,1,0,7122774,0.5
13,0,1.719,19,1,1,7122774,0.5
13,0,0.535,20,1,1,7122774,0.5
13,0,0.415,21,1,1,7122774,0.5
13,0,0.828,22,1,1,7122774,0.5
13,0,0.407,23,1,1,7122774,0.5
13,0,0.459,24,1,1,7122774,0.5
13,0,0.726,25,1,0,7122774,0.5
13,1,0.431,26,1,0,7122774,0.5
13,1,1.223,27,1,0,7122774,0.5
13,0,0.567,28,1,1,7122774,0.5
13,0,0.383,29,1,1,7122774,0.5
13,0,0.518,30,1,1,7122774,0.5
13,0,0.458,31,1,1,7122774,0.5
13,0,0.448,32,1,1,7122774,0.5
13,0,0.871,33,1,1,7122774,0.5
13,0,0.536,34,1,0,7122774,0.5
13,0,0.607,35,1,1,7122774,0.5
13,0,0.46,36,1,0,7122774,0.5
13,0,0.643,37,1,1,7122774,0.5
13,0,1.447,38,1,1,7122774,0.5
13,0,0.884,39,1,1,7122774,0.5
13,0,0.595,40,1,1,7122774,0.5
13,0,0.594,41,1,0,7122774,0.5
13,0,0.389,42,1,0,7122774,0.5
13,1,0.613,43,1,1,7122774,0.5
13,1,0.407,44,1,1,7122774,0.5
13,1,0.323,45,1,1,7122774,0.5
13,1,1.197,46,1,0,7122774,0.5
13,0,0.463,47,1,0,7122774,0.5
13,1,0.421,48,1,0,7122774,0.5
13,0,0.573,49,1,0,7122774,0.5
13,0,0.538,50,1,1,7122774,0.5
13,0,0.439,51,1,0,7122774,0.5
13,1,0.376,52,1,0,7122774,0.5
13,0,0.429,53,1,0,7122774,0.5
13,1,0.39,54,1,1,7122774,0.5
13,1,0.366,55,1,0,7122774,0.5
13,0,0.663,56,1,1,7122774,0.5
13,0,0.423,57,1,0,7122774,0.5
13,1,0.551,58,1,1,7122774,0.5
13,1,0.699,59,1,1,7122774,0.5
13,1,0.366,60,1,1,7122774,0.5
13,1,0.619,61,1,1,7122774,0.5
13,1,0.338,62,1,1,7122774,0.5
13,0,1.869,63,1,0,7122774,0.5
13,1,0.837,64,1,0,7122774,0.5
13,1,0.309,65,1,1,7122774,0.5
13,1,0.269,66,1,1,7122774,0.5
13,1,0.269,67,1,1,7122774,0.5
13,1,1.206,68,1,1,7122774,0.5
13,1,0.537,69,1,1,7122774,0.5
13,1,0.386,70,1,1,7122774,0.5
13,1,1.746,71,1,1,7122774,0.5
13,1,0.404,72,1,1,7122774,0.5
13,1,0.544,73,1,0,7122774,0.5
13,1,0.592,74,1,1,7122774,0.5
13,1,0.772,75,1,0,7122774,0.5
13,1,0.698,76,1,1,7122774,0.5
13,1,0.675,77,1,1,7122774,0.5
13,1,1.318,78,1,0,7122774,0.5
13,0,0.416,79,1,1,7122774,0.5
13,0,0.355,80,1,1,7122774,0.5
13,0,1.066,81,1,1,7122774,0.5
13,0,0.378,82,1,1,7122774,0.5
13,0,0.537,83,1,0,7122774,0.5
13,0,0.538,84,1,1,7122774,0.5
13,0,0.415,85,1,0,7122774,0.5
13,1,0.46,86,1,0,7122774,0.5
13,0,0.373,87,1,1,7122774,0.5
13,0,0.447,88,1,1,7122774,0.5
13,0,0.544,89,1,1,7122774,0.5
13,0,0.365,90,1,1,7122774,0.5
13,0,0.61,91,1,0,7122774,0.5
13,0,0.387,92,1,1,7122774,0.5
13,0,0.803,93,1,0,7122774,0.5
13,0,0.897,94,1,0,7122774,0.5
13,1,0.438,95,1,0,7122774,0.5
13,0,0.37,96,1,1,7122774,0.5
13,0,0.584,97,1,0,7122774,0.5
13,0,1.556,98,1,1,7122774,0.5
13,0,0.39,99,1,1,7122774,0.5
13,0,0.744,100,1,1,7122774,0.5
13,0,1.772,101,1,1,7122774,0.5
13,1,0.904,102,1,0,7122774,0.5
13,0,0.385,103,1,1,7122774,0.5
13,0,1.172,104,1,1,7122774,0.5
13,0,1.322,105,1,0,7122774,0.5
13,0,0.642,106,1,1,7122774,0.5
13,0,0.766,107,1,1,7122774,0.5
13,1,1.113,108,1,0,7122774,0.5
13,0,0.312,109,1,1,7122774,0.5
13,0,0.491,110,1,1,7122774,0.5
13,0,1.225,111,1,1,7122774,0.5
13,0,0.517,112,1,0,7122774,0.5
13,1,0.376,113,1,1,7122774,0.5
13,1,0.523,114,1,1,7122774,0.5
13,1,1.016,115,1,0,7122774,0.5
13,1,0.884,116,1,0,7122774,0.5
13,0,0.445,117,1,1,7122774,0.5
13,0,0.425,118,1,0,7122774,0.5
13,1,0.907,119,1,1,7122774,0.5
13,1,0.761,120,1,0,7122774,0.5
13,0,0.32,121,1,0,7122774,0.5
13,0,0.478,122,1,1,7122774,0.5
13,0,0.703,123,1,1,7122774,0.5
13,1,1.636,124,1,1,7122774,0.5
13,1,0.56,125,1,1,7122774,0.5
13,1,0.343,126,1,1,7122774,0.5
13,1,0.338,127,1,1,7122774,0.5
13,1,0.41,128,1,1,7122774,0.5
13,1,1.027,129,1,0,7122774,0.5
13,1,0.33,130,1,0,7122774,0.5
13,0,0.441,131,1,0,7122774,0.5
13,1,0.268,132,1,1,7122774,0.5
13,1,0.283,133,1,0,7122774,0.5
13,0,0.718,134,1,1,7122774,0.5
13,0,0.591,135,1,0,7122774,0.5
13,0,0.511,136,1,0,7122774,0.5
13,1,0.452,137,1,0,7122774,0.5
13,0,0.367,138,1,0,7122774,0.5
13,0,0.382,139,1,0,7122774,0.5
13,1,1.569,140,1,1,7122774,0.5
13,1,0.505,141,1,1,7122774,0.5
13,1,0.349,142,1,1,7122774,0.5
13,0,0.336,143,1,0,7122774,0.5
13,1,1.315,144,1,0,7122774,0.5
13,0,0.657,145,1,0,7122774,0.5
13,1,0.383,146,1,1,7122774,0.5
13,1,0.559,147,1,1,7122774,0.5
13,1,0.761,148,1,0,7122774,0.5
13,0,0.425,149,1,0,7122774,0.5
13,1,1.057,150,1,0,7122774,0.5
13,0,0.558,151,1,1,7122774,0.5
13,0,0.519,152,1,0,7122774,0.5
13,1,1.636,153,1,1,7122774,0.5
13,1,0.643,154,1,1,7122774,0.5
13,1,1.194,155,1,1,7122774,0.5
13,1,1.413,156,1,1,7122774,0.5
13,1,0.52,157,1,1,7122774,0.5
13,1,0.438,158,1,0,7122774,0.5
13,0,0.477,159,1,0,7122774,0.5
13,1,0.617,160,1,1,7122774,0.5
14,1,1.593,1,1,1,7114160,0.5
14,1,1.164,2,1,0,7114160,0.5
14,1,0.883,3,1,0,7114160,0.5
14,0,0.438,4,1,1,7114160,0.5
14,1,0.503,5,1,1,7114160,0.5
14,1,0.88,6,1,0,7114160,0.5
14,0,0.281,7,1,1,7114160,0.5
14,0,0.448,8,1,1,7114160,0.5
14,1,0.711,9,1,0,7114160,0.5
14,1,2.406,10,1,1,7114160,0.5
14,1,1.159,11,1,1,7114160,0.5
14,1,1.897,12,1,0,7114160,0.5
14,0,1.513,13,1,1,7114160,0.5
14,0,1.319,14,1,1,7114160,0.5
14,1,1.192,15,1,0,7114160,0.5
14,0,1.394,16,1,1,7114160,0.5
14,1,1.222,17,1,1,7114160,0.5
14,0,1.167,18,1,1,7114160,0.5
14,0,0.839,19,1,0,7114160,0.5
14,0,1.046,20,1,0,7114160,0.5
14,0,0.68,21,1,0,7114160,0.5
14,1,1.209,22,1,1,7114160,0.5
14,1,1.013,23,1,0,7114160,0.5
14,0,0.788,24,1,0,7114160,0.5
14,0,0.841,25,1,1,7114160,0.5
14,0,0.695,26,1,0,7114160,0.5
14,1,0.953,27,1,0,7114160,0.5
14,1,1.405,28,1,0,7114160,0.5
14,1,1.146,29,1,1,7114160,0.5
14,1,0.715,30,1,0,7114160,0.5
14,0,0.621,31,1,1,7114160,0.5
14,1,0.852,32,1,0,7114160,0.5
14,0,1.573,33,1,1,7114160,0.5
14,1,1.033,34,1,0,7114160,0.5
14,1,0.698,35,1,0,7114160,0.5
14,0,0.379,36,1,1,7114160,0.5
14,1,0.886,37,1,1,7114160,0.5
14,0,1.112,38,1,1,7114160,0.5
14,1,1.052,39,1,0,7114160,0.5
14,0,0.64,40,1,1,7114160,0.5
14,0,1.191,41,1,1,7114160,0.5
14,1,1.255,42,1,1,7114160,0.5
14,1,1.603,43,1,1,7114160,0.5
14,1,1.087,44,1,1,7114160,0.5
14,1,2.093,45,1,0,7114160,0.5
14,1,1.057,46,1,0,7114160,0.5
14,0,0.441,47,1,0,7114160,0.5
14,1,1.472,48,1,1,7114160,0.5
14,1,1.494,49,1,1,7114160,0.5
14,1,1.471,50,1,1,7114160,0.5
14,1,0.79,51,1,1,7114160,0.5
14,1,0.934,52,1,0,7114160,0.5
14,1,0.969,53,1,1,7114160,0.5
14,1,1.296,54,1,1,7114160,0.5
14,0,2.453,55,1,0,7114160,0.5
14,1,0.877,56,1,1,7114160,0.5
14,0,1.668,57,1,0,7114160,0.5
14,1,1.53,58,1,1,7114160,0.5
14,1,0.89,59,1,1,7114160,0.5
14,1,0.766,60,1,1,7114160,0.5
14,1,1.929,61,1,1,7114160,0.5
14,1,1.538,62,1,1,7114160,0.5
14,0,1.069,63,1,0,7114160,0.5
14,1,1.968,64,1,0,7114160,0.5
14,0,1.344,65,1,0,7114160,0.5
14,1,1.292,66,1,0,7114160,0.5
14,1,0.883,67,1,1,7114160,0.5
14,1,2.051,68,1,0,7114160,0.5
14,1,1.465,69,1,0,7114160,0.5
14,0,0.446,70,1,0,7114160,0.5
14,1,0.85,71,1,0,7114160,0.5
14,0,1.466,72,1,1,7114160,0.5
14,1,1.407,73,1,0,7114160,0.5
14,0,0.986,74,1,0,7114160,0.5
14,1,1.206,75,1,0,7114160,0.5
14,1,0.945,76,1,0,7114160,0.5
14,1,1.524,77,1,0,7114160,0.5
14,0,1.236,78,1,0,7114160,0.5
14,1,0.684,79,1,1,7114160,0.5
14,0,1.226,80,1,0,7114160,0.5
14,0,0.869,81,1,1,7114160,0.5
14,0,0.892,82,1,0,7114160,0.5
14,0,1.933,83,1,1,7114160,0.5
14,0,1.228,84,1,1,7114160,0.5
14,0,0.747,85,1,0,7114160,0.5
14,0,1.333,86,1,1,7114160,0.5
14,1,1.272,87,1,0,7114160,0.5
14,0,0.966,88,1,1,7114160,0.5
14,1,1.314,89,1,0,7114160,0.5
14,0,1.124,90,1,1,7114160,0.5
14,0,0.968,91,1,1,7114160,0.5
14,0,0.794,92,1,1,7114160,0.5
14,1,1.127,93,1,1,7114160,0.5
14,1,2.39,94,1,1,7114160,0.5
14,0,1.085,95,1,1,7114160,0.5
14,0,1.508,96,1,0,7114160,0.5
14,0,0.799,97,1,1,7114160,0.5
14,0,1.347,98,1,1,7114160,0.5
14,1,0.972,99,1,1,7114160,0.5
14,1,1.222,100,1,0,7114160,0.5
14,0,1.835,101,1,0,7114160,0.5
14,1,0.786,102,1,0,7114160,0.5
14,0,0.327,103,1,0,7114160,0.5
14,1,1.699,104,1,0,7114160,0.5
14,1,1.033,105,1,0,7114160,0.5
14,1,0.505,106,1,0,7114160,0.5
14,0,0.483,107,1,0,7114160,0.5
14,0,1.067,108,1,1,7114160,0.5
14,1,1.192,109,1,1,7114160,0.5
14,1,1.728,110,1,0,7114160,0.5
14,1,0.705,111,1,1,7114160,0.5
14,1,0.926,112,1,0,7114160,0.5
14,1,0.452,113,1,0,7114160,0.5
14,1,0.787,114,1,0,7114160,0.5
14,1,0.727,115,1,1,7114160,0.5
14,0,0.913,116,1,1,7114160,0.5
14,0,0.922,117,1,1,7114160,0.5
14,0,1.487,118,1,1,7114160,0.5
14,0,1.671,119,1,1,7114160,0.5
14,0,0.731,120,1,0,7114160,0.5
14,1,1.175,121,1,0,7114160,0.5
14,0,1.098,122,1,0,7114160,0.5
14,1,0.558,123,1,1,7114160,0.5
14,0,0.852,124,1,1,7114160,0.5
14,1,1.046,125,1,1,7114160,0.5
14,0,0.989,126,1,0,7114160,0.5
14,1,1.754,127,1,1,7114160,0.5
14,1,1.845,128,1,1,7114160,0.5
14,0,2.034,129,1,0,7114160,0.5
14,0,0.671,130,1,0,7114160,0.5
14,0,0.588,131,1,0,7114160,0.5
14,0,0.58,132,1,0,7114160,0.5
14,1,0.57,133,1,1,7114160,0.5
14,0,1.617,134,1,0,7114160,0.5
14,0,0.51,135,1,0,7114160,0.5
14,1,0.394,136,1,1,7114160,0.5
14,1,1.299,137,1,1,7114160,0.5
14,0,1.909,138,1,0,7114160,0.5
14,1,0.686,139,1,0,7114160,0.5
14,0,0.561,140,1,0,7114160,0.5
14,0,0.529,141,1,1,7114160,0.5
14,1,0.913,142,1,1,7114160,0.5
14,1,1.249,143,1,1,7114160,0.5
14,0,1.63,144,1,0,7114160,0.5
14,1,0.669,145,1,1,7114160,0.5
14,0,0.956,146,1,0,7114160,0.5
14,0,0.818,147,1,1,7114160,0.5
14,0,0.687,148,1,1,7114160,0.5
14,1,0.912,149,1,1,7114160,0.5
14,0,1.034,150,1,0,7114160,0.5
14,0,1.448,151,1,1,7114160,0.5
14,0,0.704,152,1,0,7114160,0.5
14,0,1.125,153,1,1,7114160,0.5
14,0,0.624,154,1,0,7114160,0.5
14,1,0.982,155,1,0,7114160,0.5
14,1,0.587,156,1,1,7114160,0.5
14,1,0.531,157,1,0,7114160,0.5
14,0,0.852,158,1,0,7114160,0.5
14,0,0.514,159,1,1,7114160,0.5
14,0,0.926,160,1,1,7114160,0.5
15,1,1.053,1,1,0,7118294,0.5
15,1,1.172,2,1,0,7118294,0.5
15,1,0.276,3,1,0,7118294,0.5
15,1,0.789,4,1,0,7118294,0.5
15,0,1.63,5,1,1,7118294,0.5
15,0,0.973,6,1,0,7118294,0.5
15,0,0.857,7,1,1,7118294,0.5
15,0,0.729,8,1,1,7118294,0.5
15,0,0.55,9,1,1,7118294,0.5
15,0,0.556,10,1,1,7118294,0.5
15,0,0.885,11,1,1,7118294,0.5
15,0,0.425,12,1,0,7118294,0.5
15,0,0.356,13,1,1,7118294,0.5
15,0,0.488,14,1,1,7118294,0.5
15,0,0.763,15,1,1,7118294,0.5
15,0,0.501,16,1,1,7118294,0.5
15,0,0.692,17,1,1,7118294,0.5
15,0,0.711,18,1,1,7118294,0.5
15,0,1.004,19,1,1,7118294,0.5
15,0,0.956,20,1,1,7118294,0.5
15,0,1.37,21,1,0,7118294,0.5
15,0,0.978,22,1,1,7118294,0.5
15,0,0.404,23,1,0,7118294,0.5
15,0,0.405,24,1,1,7118294,0.5
15,0,0.439,25,1,1,7118294,0.5
15,0,0.46,26,1,1,7118294,0.5
15,0,0.558,27,1,0,7118294,0.5
15,0,0.294,28,1,1,7118294,0.5
15,0,0.732,29,1,1,7118294,0.5
15,0,0.525,30,1,1,7118294,0.5
15,0,0.575,31,1,0,7118294,0.5
15,0,0.463,32,1,0,7118294,0.5
15,0,0.483,33,1,0,7118294,0.5
15,1,0.535,34,1,0,7118294,0.5
15,0,0.647,35,1,0,7118294,0.5
15,0,0.493,36,1,0,7118294,0.5
15,1,0.89,37,1,1,7118294,0.5
15,1,0.462,38,1,0,7118294,0.5
15,0,0.64,39,1,1,7118294,0.5
15,1,0.694,40,1,1,7118294,0.5
15,1,0.587,41,1,0,7118294,0.5
15,0,0.528,42,1,0,7118294,0.5
15,0,0.358,43,1,0,7118294,0.5
15,1,0.867,44,1,0,7118294,0.5
15,0,0.801,45,1,1,7118294,0.5
15,0,0.359,46,1,1,7118294,0.5
15,1,0.723,47,1,1,7118294,0.5
15,0,2.39,48,1,1,7118294,0.5
15,0,0.905,49,1,0,7118294,0.5
15,0,1.688,50,1,0,7118294,0.5
15,0,0.419,51,1,1,7118294,0.5
15,0,0.478,52,1,0,7118294,0.5
15,0,0.842,53,1,1,7118294,0.5
15,1,0.546,54,1,0,7118294,0.5
15,1,0.334,55,1,1,7118294,0.5
15,0,0.991,56,1,0,7118294,0.5
15,0,0.366,57,1,0,7118294,0.5
15,1,0.706,58,1,1,7118294,0.5
15,1,0.497,59,1,0,7118294,0.5
15,1,0.403,60,1,1,7118294,0.5
15,1,0.415,61,1,1,7118294,0.5
15,1,0.385,62,1,1,7118294,0.5
15,1,0.551,63,1,1,7118294,0.5
15,1,0.444,64,1,1,7118294,0.5
15,1,0.558,65,1,1,7118294,0.5
15,1,0.288,66,1,1,7118294,0.5
15,1,0.432,67,1,1,7118294,0.5
15,1,0.581,68,1,0,7118294,0.5
15,0,0.514,69,1,0,7118294,0.5
15,1,0.902,70,1,1,7118294,0.5
15,1,0.39,71,1,0,7118294,0.5
15,1,0.389,72,1,1,7118294,0.5
15,1,0.448,73,1,0,7118294,0.5
15,1,1.017,74,1,1,7118294,0.5
15,1,0.642,75,1,1,7118294,0.5
15,1,0.898,76,1,1,7118294,0.5
15,0,0.427,77,1,0,7118294,0.5
15,1,0.291,78,1,1,7118294,0.5
15,1,0.512,79,1,1,7118294,0.5
15,1,0.96,80,1,1,7118294,0.5
15,0,1.603,81,1,1,7118294,0.5
15,1,0.68,82,1,0,7118294,0.5
15,0,0.291,83,1,1,7118294,0.5
15,0,0.347,84,1,0,7118294,0.5
15,1,0.235,85,1,1,7118294,0.5
15,0,0.775,86,1,1,7118294,0.5
15,1,1.36,87,1,0,7118294,0.5
15,0,0.203,88,1,0,7118294,0.5
15,1,0.579,89,1,1,7118294,0.5
15,0,0.611,90,1,1,7118294,0.5
15,0,0.357,91,1,1,7118294,0.5
15,1,0.408,92,1,0,7118294,0.5
15,0,0.242,93,1,1,7118294,0.5
15,1,0.909,94,1,1,7118294,0.5
15,1,0.654,95,1,1,7118294,0.5
15,0,0.279,96,1,1,7118294,0.5
15,0,0.426,97,1,0,7118294,0.5
15,0,0.213,98,1,0,7118294,0.5
15,0,0.29,99,1,1,7118294,0.5
15,0,0.723,100,1,1,7118294,0.5
15,0,0.641,101,1,0,7118294,0.5
15,0,0.334,102,1,1,7118294,0.5
15,0,0.282,103,1,0,7118294,0.5
15,1,0.461,104,1,0,7118294,0.5
15,1,0.293,105,1,0,7118294,0.5
15,0,0.535,106,1,0,7118294,0.5
15,1,0.407,107,1,0,7118294,0.5
15,0,0.762,108,1,1,7118294,0.5
15,1,0.747,109,1,0,7118294,0.5
15,0,0.412,110,1,1,7118294,0.5
15,0,0.347,111,1,1,7118294,0.5
15,0,1.66,112,1,1,7118294,0.5
15,0,1.231,113,1,1,7118294,0.5
15,0,0.628,114,1,1,7118294,0.5
15,0,0.572,115,1,1,7118294,0.5
15,0,0.354,116,1,1,7118294,0.5
15,1,0.933,117,1,0,7118294,0.5
15,1,0.499,118,1,0,7118294,0.5
15,1,0.36,119,1,1,7118294,0.5
15,1,0.701,120,1,0,7118294,0.5
15,1,0.786,121,1,1,7118294,0.5
15,1,0.814,122,1,1,7118294,0.5
15,1,1.009,123,1,0,7118294,0.5
15,1,0.265,124,1,1,7118294,0.5
15,1,0.891,125,1,1,7118294,0.5
15,1,0.503,126,1,1,7118294,0.5
15,1,0.735,127,1,1,7118294,0.5
15,1,0.512,128,1,1,7118294,0.5
15,0,1.248,129,1,1,7118294,0.5
15,0,0.476,130,1,0,7118294,0.5
15,0,0.634,131,1,1,7118294,0.5
15,1,0.633,132,1,1,7118294,0.5
15,1,0.669,133,1,0,7118294,0.5
15,1,0.431,134,1,1,7118294,0.5
15,0,0.7,135,1,0,7118294,0.5
15,1,0.298,136,1,1,7118294,0.5
15,1,0.619,137,1,1,7118294,0.5
15,1,0.377,138,1,1,7118294,0.5
15,1,0.225,139,1,1,7118294,0.5
15,1,0.294,140,1,0,7118294,0.5
15,0,0.272,141,1,0,7118294,0.5
15,0,0.231,142,1,0,7118294,0.5
15,1,0.238,143,1,0,7118294,0.5
15,0,0.882,144,1,0,7118294,0.5
15,0,0.756,145,1,0,7118294,0.5
15,0,2.479,146,1,0,7118294,0.5
15,1,0.679,147,1,0,7118294,0.5
15,0,0.427,148,1,1,7118294,0.5
15,0,0.596,149,1,0,7118294,0.5
15,1,1.005,150,1,1,7118294,0.5
15,1,0.383,151,1,0,7118294,0.5
15,0,0.54,152,1,0,7118294,0.5
15,1,0.183,153,1,0,7118294,0.5
15,1,1.105,154,1,1,7118294,0.5
15,0,0.197,155,1,0,7118294,0.5
15,0,0.374,156,1,1,7118294,0.5
15,1,1.987,157,1,1,7118294,0.5
15,1,0.595,158,1,1,7118294,0.5
15,0,0.975,159,1,0,7118294,0.5
15,0,0.96,160,1,1,7118294,0.5
16,1,0.933,1,1,0,7128005,0.5
16,0,0.952,2,1,1,7128005,0.5
16,0,0.364,3,1,1,7128005,0.5
16,1,0.296,4,1,0,7128005,0.5
16,1,0.474,5,1,0,7128005,0.5
16,0,0.676,6,1,1,7128005,0.5
16,0,0.499,7,1,0,7128005,0.5
16,1,1.066,8,1,1,7128005,0.5
16,0,0.917,9,1,0,7128005,0.5
16,0,1.429,10,1,1,7128005,0.5
16,0,0.686,11,1,1,7128005,0.5
16,1,0.54,12,1,0,7128005,0.5
16,0,0.87,13,1,0,7128005,0.5
16,0,0.678,14,1,1,7128005,0.5
16,0,1.178,15,1,1,7128005,0.5
16,1,1.883,16,1,0,7128005,0.5
16,1,0.548,17,1,0,7128005,0.5
16,0,0.561,18,1,1,7128005,0.5
16,0,1.598,19,1,1,7128005,0.5
16,0,2.441,20,1,0,7128005,0.5
16,1,0.932,21,1,1,7128005,0.5
16,0,0.79,22,1,1,7128005,0.5
16,1,0.914,23,1,0,7128005,0.5
16,0,1.817,24,1,0,7128005,0.5
16,0,0.627,25,1,1,7128005,0.5
16,0,1.949,26,1,0,7128005,0.5
16,0,1.315,27,1,1,7128005,0.5
16,0,1.75,28,1,1,7128005,0.5
16,1,1.48,29,1,0,7128005,0.5
16,0,0.704,30,1,0,7128005,0.5
16,1,1.23,31,1,0,7128005,0.5
16,0,0.576,32,1,1,7128005,0.5
16,0,0.868,33,1,1,7128005,0.5
16,1,1.9,34,1,0,7128005,0.5
16,0,1.329,35,1,0,7128005,0.5
16,0,0.415,36,1,1,7128005,0.5
16,0,1.069,37,1,0,7128005,0.5
16,0,0.75,38,1,1,7128005,0.5
16,0,0.575,39,1,1,7128005,0.5
16,1,1.549,40,1,1,7128005,0.5
16,1,1.015,41,1,1,7128005,0.5
16,1,0.627,42,1,1,7128005,0.5
16,1,0.836,43,1,1,7128005,0.5
16,1,1.095,44,1,0,7128005,0.5
16,0,0.749,45,1,0,7128005,0.5
16,1,0.538,46,1,1,7128005,0.5
16,0,1.491,47,1,0,7128005,0.5
16,1,0.565,48,1,1,7128005,0.5
16,1,0.581,49,1,1,7128005,0.5
16,1,0.604,50,1,1,7128005,0.5
16,1,0.693,51,1,1,7128005,0.5
16,1,0.416,52,1,1,7128005,0.5
16,1,0.579,53,1,1,7128005,0.5
16,1,0.715,54,1,0,7128005,0.5
16,1,1.155,55,1,0,7128005,0.5
16,0,1.231,56,1,1,7128005,0.5
16,0,1.816,57,1,0,7128005,0.5
16,1,0.994,58,1,1,7128005,0.5
16,1,0.942,59,1,1,7128005,0.5
16,1,0.688,60,1,0,7128005,0.5
16,1,0.632,61,1,1,7128005,0.5
16,0,1.852,62,1,0,7128005,0.5
16,1,0.611,63,1,0,7128005,0.5
16,1,2.441,64,1,0,7128005,0.5
16,1,0.56,65,1,1,7128005,0.5
16,1,0.572,66,1,1,7128005,0.5
16,1,0.503,67,1,0,7128005,0.5
16,0,0.64,68,1,0,7128005,0.5
16,0,0.574,69,1,1,7128005,0.5
16,0,0.68,70,1,1,7128005,0.5
16,0,0.697,71,1,0,7128005,0.5
16,0,0.716,72,1,1,7128005,0.5
16,0,0.454,73,1,0,7128005,0.5
16,0,0.998,74,1,1,7128005,0.5
16,0,0.998,75,1,0,7128005,0.5
16,0,0.903,76,1,0,7128005,0.5
16,1,0.497,77,1,1,7128005,0.5
16,1,0.783,78,1,1,7128005,0.5
16,0,1.372,79,1,0,7128005,0.5
16,1,0.891,80,1,1,7128005,0.5
16,1,0.611,81,1,1,7128005,0.5
16,0,1.98,82,1,0,7128005,0.5
16,0,0.683,83,1,1,7128005,0.5
16,1,0.59,84,1,0,7128005,0.5
16,0,0.897,85,1,0,7128005,0.5
16,1,1.036,86,1,0,7128005,0.5
16,0,0.727,87,1,1,7128005,0.5
16,1,1.655,88,1,0,7128005,0.5
16,1,0.644,89,1,0,7128005,0.5
16,0,0.567,90,1,0,7128005,0.5
16,0,0.531,91,1,0,7128005,0.5
16,0,0.435,92,1,0,7128005,0.5
16,0,0.621,93,1,1,7128005,0.5
16,1,0.587,94,1,0,7128005,0.5
16,0,0.34,95,1,1,7128005,0.5
16,0,2.068,96,1,0,7128005,0.5
16,1,0.441,97,1,0,7128005,0.5
16,0,0.45,98,1,1,7128005,0.5
16,0,1.168,99,1,1,7128005,0.5
16,1,1.307,100,1,1,7128005,0.5
16,0,1.488,101,1,1,7128005,0.5
16,0,0.738,102,1,0,7128005,0.5
16,1,1.007,103,1,0,7128005,0.5
16,0,0.322,104,1,1,7128005,0.5
16,0,1.014,105,1,1,7128005,0.5
16,0,0.583,106,1,1,7128005,0.5
16,1,0.39,107,1,0,7128005,0.5
16,0,0.519,108,1,1,7128005,0.5
16,0,0.459,109,1,1,7128005,0.5
16,0,1.62,110,1,1,7128005,0.5
16,1,1.377,111,1,0,7128005,0.5
16,0,0.326,112,1,1,7128005,0.5
16,1,1.3,113,1,1,7128005,0.5
16,0,0.835,114,1,1,7128005,0.5
16,1,1.105,115,1,0,7128005,0.5
16,1,0.345,116,1,1,7128005,0.5
16,1,0.714,117,1,0,7128005,0.5
16,1,0.943,118,1,1,7128005,0.5
16,1,1.064,119,1,0,7128005,0.5
16,0,0.543,120,1,1,7128005,0.5
16,0,1.055,121,1,0,7128005,0.5
16,1,0.625,122,1,1,7128005,0.5
16,0,0.608,123,1,0,7128005,0.5
16,1,0.449,124,1,0,7128005,0.5
16,0,0.578,125,1,0,7128005,0.5
16,0,0.306,126,1,0,7128005,0.5
16,0,0.315,127,1,0,7128005,0.5
16,0,0.842,128,1,1,7128005,0.5
16,0,1.031,129,1,1,7128005,0.5
16,0,1.175,130,1,0,7128005,0.5
16,0,0.407,131,1,0,7128005,0.5
16,0,0.808,132,1,1,7128005,0.5
16,0,0.893,133,1,1,7128005,0.5
16,1,0.482,134,1,1,7128005,0.5
16,1,0.828,135,1,1,7128005,0.5
16,0,0.765,136,1,1,7128005,0.5
16,0,0.573,137,1,0,7128005,0.5
16,1,0.358,138,1,1,7128005,0.5
16,1,0.409,139,1,0,7128005,0.5
16,0,0.481,140,1,0,7128005,0.5
16,0,0.527,141,1,0,7128005,0.5
16,1,0.748,142,1,1,7128005,0.5
16,0,1.034,143,1,0,7128005,0.5
16,1,0.298,144,1,0,7128005,0.5
16,1,0.433,145,1,1,7128005,0.5
16,1,0.299,146,1,1,7128005,0.5
16,0,0.295,147,1,1,7128005,0.5
16,0,0.416,148,1,0,7128005,0.5
16,1,0.297,149,1,0,7128005,0.5
16,0,0.271,150,1,0,7128005,0.5
16,0,0.308,151,1,0,7128005,0.5
16,0,0.37,152,1,0,7128005,0.5
16,0,0.564,153,1,0,7128005,0.5
16,1,0.396,154,1,1,7128005,0.5
16,1,0.39,155,1,1,7128005,0.5
16,0,1.375,156,1,1,7128005,0.5
16,1,1.231,157,1,1,7128005,0.5
16,0,0.304,158,1,1,7128005,0.5
16,0,0.397,159,1,0,7128005,0.5
16,0,0.299,160,1,0,7128005,0.5
17,0,1.149,1,1,1,7116474,0.5
17,0,1.324,2,1,1,7116474,0.5
17,1,1.464,3,1,1,7116474,0.5
17,0,1.56,4,1,0,7116474,0.5
17,1,0.559,5,1,1,7116474,0.5
17,1,2.401,6,1,0,7116474,0.5
17,0,0.77,7,1,1,7116474,0.5
17,0,1.875,8,1,1,7116474,0.5
17,1,2.401,9,1,0,7116474,0.5
17,0,0.974,10,1,1,7116474,0.5
17,0,1.087,11,1,1,7116474,0.5
17,0,1.023,12,1,1,7116474,0.5
17,0,1.164,13,1,1,7116474,0.5
17,0,1.042,14,1,1,7116474,0.5
17,0,1.178,15,1,0,7116474,0.5
17,0,0.612,16,1,1,7116474,0.5
17,0,0.599,17,1,1,7116474,0.5
17,0,0.789,18,1,0,7116474,0.5
17,1,1.261,19,1,0,7116474,0.5
17,0,0.489,20,1,1,7116474,0.5
17,0,1.425,21,1,1,7116474,0.5
17,0,0.733,22,1,0,7116474,0.5
17,1,0.622,23,1,1,7116474,0.5
17,1,0.519,24,1,1,7116474,0.5
17,1,0.531,25,1,1,7116474,0.5
17,1,0.481,26,1,1,7116474,0.5
17,1,0.496,27,1,0,7116474,0.5
17,0,0.787,28,1,1,7116474,0.5
17,0,1.048,29,1,1,7116474,0.5
17,1,2.235,30,1,0,7116474,0.5
17,0,0.769,31,1,1,7116474,0.5
17,0,1.521,32,1,1,7116474,0.5
17,0,0.539,33,1,1,7116474,0.5
17,0,0.616,34,1,1,7116474,0.5
17,0,0.431,35,1,0,7116474,0.5
17,1,0.39,36,1,0,7116474,0.5
17,0,0.43,37,1,1,7116474,0.5
17,0,0.567,38,1,1,7116474,0.5
17,0,0.768,39,1,0,7116474,0.5
17,1,1.301,40,1,0,7116474,0.5
17,0,0.587,41,1,0,7116474,0.5
17,1,2.299,42,1,1,7116474,0.5
17,1,0.555,43,1,0,7116474,0.5
17,0,0.989,44,1,0,7116474,0.5
17,1,0.848,45,1,0,7116474,0.5
17,0,0.576,46,1,0,7116474,0.5
17,1,1.743,47,1,1,7116474,0.5
17,1,0.544,48,1,0,7116474,0.5
17,0,0.412,49,1,0,7116474,0.5
17,1,1.971,50,1,1,7116474,0.5
17,1,1.279,51,1,1,7116474,0.5
17,1,0.601,52,1,1,7116474,0.5
17,0,1.439,53,1,0,7116474,0.5
17,0,0.887,54,1,0,7116474,0.5
17,0,1.164,55,1,1,7116474,0.5
17,0,0.852,56,1,0,7116474,0.5
17,0,0.508,57,1,0,7116474,0.5
17,0,1.075,58,1,1,7116474,0.5
17,0,0.827,59,1,1,7116474,0.5
17,0,0.645,60,1,0,7116474,0.5
17,1,0.238,61,1,1,7116474,0.5
17,1,0.287,62,1,1,7116474,0.5
17,1,0.212,63,1,0,7116474,0.5
17,0,0.836,64,1,1,7116474,0.5
17,0,0.661,65,1,0,7116474,0.5
17,1,1.293,66,1,1,7116474,0.5
17,1,0.889,67,1,1,7116474,0.5
17,1,0.935,68,1,1,7116474,0.5
17,1,1.141,69,1,1,7116474,0.5
17,1,1.201,70,1,0,7116474,0.5
17,0,2.392,71,1,0,7116474,0.5
17,0,0.825,72,1,0,7116474,0.5
17,0,0.374,73,1,1,7116474,0.5
17,1,0.335,74,1,1,7116474,0.5
17,1,0.195,75,1,1,7116474,0.5
17,0,0.909,76,1,1,7116474,0.5
17,1,0.603,77,1,1,7116474,0.5
17,0,0.482,78,1,0,7116474,0.5
17,0,1.152,79,1,0,7116474,0.5
17,1,0.845,80,1,1,7116474,0.5
17,0,1.843,81,1,0,7116474,0.5
17,1,1.117,82,1,0,7116474,0.5
17,0,0.706,83,1,0,7116474,0.5
17,1,0.542,84,1,1,7116474,0.5
17,1,0.676,85,1,1,7116474,0.5
17,1,0.433,86,1,0,7116474,0.5
17,0,0.339,87,1,1,7116474,0.5
17,1,1.602,88,1,0,7116474,0.5
17,1,0.314,89,1,0,7116474,0.5
17,1,0.704,90,1,0,7116474,0.5
17,0,0.372,91,1,1,7116474,0.5
17,0,0.275,92,1,1,7116474,0.5
17,0,1.312,93,1,1,7116474,0.5
17,1,0.406,94,1,1,7116474,0.5
17,1,0.485,95,1,0,7116474,0.5
17,0,1.122,96,1,1,7116474,0.5
17,0,0.781,97,1,1,7116474,0.5
17,1,0.813,98,1,1,7116474,0.5
17,0,1.021,99,1,1,7116474,0.5
17,0,0.587,100,1,0,7116474,0.5
17,0,0.995,101,1,0,7116474,0.5
17,0,0.572,102,1,1,7116474,0.5
17,1,0.785,103,1,0,7116474,0.5
17,1,0.254,104,1,1,7116474,0.5
17,1,0.349,105,1,0,7116474,0.5
17,1,0.508,106,1,0,7116474,0.5
17,1,1.705,107,1,1,7116474,0.5
17,1,0.477,108,1,1,7116474,0.5
17,1,0.784,109,1,0,7116474,0.5
17,0,0.356,110,1,1,7116474,0.5
17,1,0.532,111,1,0,7116474,0.5
17,0,1.244,112,1,0,7116474,0.5
17,0,1.855,113,1,0,7116474,0.5
17,1,0.698,114,1,0,7116474,0.5
17,1,0.406,115,1,0,7116474,0.5
17,0,0.151,116,1,1,7116474,0.5
17,0,0.437,117,1,1,7116474,0.5
17,0,1.396,118,1,1,7116474,0.5
17,0,0.454,119,1,1,7116474,0.5
17,0,0.483,120,1,1,7116474,0.5
17,0,0.437,121,1,0,7116474,0.5
17,0,0.771,122,1,1,7116474,0.5
17,1,1.035,123,1,1,7116474,0.5
17,1,0.621,124,1,0,7116474,0.5
17,0,0.633,125,1,0,7116474,0.5
17,1,0.671,126,1,1,7116474,0.5
17,1,0.818,127,1,1,7116474,0.5
17,1,0.683,128,1,1,7116474,0.5
17,1,2.275,129,1,0,7116474,0.5
17,0,0.564,130,1,0,7116474,0.5
17,1,0.643,131,1,1,7116474,0.5
17,1,0.465,132,1,1,7116474,0.5
17,1,0.506,133,1,0,7116474,0.5
17,0,0.599,134,1,0,7116474,0.5
17,0,0.881,135,1,0,7116474,0.5
17,1,1.699,136,1,1,7116474,0.5
17,0,0.736,137,1,0,7116474,0.5
17,1,0.477,138,1,1,7116474,0.5
17,0,0.504,139,1,1,7116474,0.5
17,0,0.252,140,1,0,7116474,0.5
17,1,1.597,141,1,1,7116474,0.5
17,1,1.252,142,1,1,7116474,0.5
17,0,0.39,143,1,0,7116474,0.5
17,0,0.441,144,1,1,7116474,0.5
17,1,1.011,145,1,0,7116474,0.5
17,1,1.065,146,1,1,7116474,0.5
17,1,0.871,147,1,1,7116474,0.5
17,0,1.568,148,1,1,7116474,0.5
17,1,0.753,149,1,1,7116474,0.5
17,0,1.327,150,1,0,7116474,0.5
17,0,0.774,151,1,1,7116474,0.5
17,0,0.917,152,1,1,7116474,0.5
17,1,1.009,153,1,1,7116474,0.5
17,0,0.847,154,1,0,7116474,0.5
17,1,1.03,155,1,0,7116474,0.5
17,1,1.201,156,1,1,7116474,0.5
17,0,0.991,157,1,0,7116474,0.5
17,1,0.532,158,1,1,7116474,0.5
17,1,0.652,159,1,1,7116474,0.5
17,1,0.508,160,1,1,7116474,0.5
18,1,0.781,1,1,0,7130443,0.5
18,0,1.105,2,1,1,7130443,0.5
18,0,0.494,3,1,1,7130443,0.5
18,1,1.899,4,1,0,7130443,0.5
18,0,2.177,5,1,1,7130443,0.5
18,0,0.806,6,1,0,7130443,0.5
18,0,0.656,7,1,1,7130443,0.5
18,1,1.122,8,1,1,7130443,0.5
18,0,0.808,9,1,1,7130443,0.5
18,0,1.562,10,1,0,7130443,0.5
18,0,1.301,11,1,0,7130443,0.5
18,0,0.653,12,1,1,7130443,0.5
18,0,1.472,13,1,1,7130443,0.5
18,0,0.673,14,1,1,7130443,0.5
18,0,0.635,15,1,0,7130443,0.5
18,1,0.58,16,1,0,7130443,0.5
18,0,0.684,17,1,1,7130443,0.5
18,0,0.97,18,1,1,7130443,0.5
18,0,0.885,19,1,1,7130443,0.5
18,0,0.399,20,1,1,7130443,0.5
18,0,0.845,21,1,1,7130443,0.5
18,0,0.927,22,1,1,7130443,0.5
18,1,0.882,23,1,0,7130443,0.5
18,1,0.886,24,1,0,7130443,0.5
18,0,0.458,25,1,1,7130443,0.5
18,0,0.57,26,1,1,7130443,0.5
18,0,1.221,27,1,0,7130443,0.5
18,1,1.17,28,1,0,7130443,0.5
18,0,0.751,29,1,1,7130443,0.5
18,0,1.953,30,1,1,7130443,0.5
18,0,0.603,31,1,0,7130443,0.5
18,0,0.474,32,1,1,7130443,0.5
18,1,1.13,33,1,1,7130443,0.5
18,0,0.665,34,1,0,7130443,0.5
18,0,0.655,35,1,1,7130443,0.5
18,0,0.725,36,1,0,7130443,0.5
18,0,1.684,37,1,0,7130443,0.5
18,0,0.721,38,1,1,7130443,0.5
18,0,0.649,39,1,1,7130443,0.5
18,0,0.483,40,1,0,7130443,0.5
18,0,0.69,41,1,0,7130443,0.5
18,1,0.745,42,1,1,7130443,0.5
18,1,0.587,43,1,1,7130443,0.5
18,1,0.657,44,1,1,7130443,0.5
18,0,0.782,45,1,0,7130443,0.5
18,1,0.689,46,1,0,7130443,0.5
18,0,0.944,47,1,0,7130443,0.5
18,1,1.048,48,1,1,7130443,0.5
18,1,0.717,49,1,0,7130443,0.5
18,1,1.058,50,1,1,7130443,0.5
18,1,1.131,51,1,1,7130443,0.5
18,1,1.07,52,1,1,7130443,0.5
18,0,1.096,53,1,1,7130443,0.5
18,0,0.726,54,1,0,7130443,0.5
18,0,0.84,55,1,0,7130443,0.5
18,0,1.247,56,1,1,7130443,0.5
18,1,1.553,57,1,0,7130443,0.5
18,0,0.716,58,1,0,7130443,0.5
18,1,0.388,59,1,1,7130443,0.5
18,1,1.629,60,1,1,7130443,0.5
18,1,0.983,61,1,1,7130443,0.5
18,1,1.477,62,1,1,7130443,0.5
18,1,1.695,63,1,0,7130443,0.5
18,0,0.5,64,1,1,7130443,0.5
18,0,1.136,65,1,0,7130443,0.5
18,0,0.755,66,1,0,7130443,0.5
18,1,0.664,67,1,1,7130443,0.5
18,1,0.461,68,1,1,7130443,0.5
18,1,0.609,69,1,0,7130443,0.5
18,0,0.501,70,1,0,7130443,0.5
18,0,0.576,71,1,1,7130443,0.5
18,0,0.447,72,1,0,7130443,0.5
18,0,0.683,73,1,1,7130443,0.5
18,1,0.906,74,1,1,7130443,0.5
18,1,1.004,75,1,1,7130443,0.5
18,0,1.248,76,1,0,7130443,0.5
18,1,0.496,77,1,0,7130443,0.5
18,1,0.793,78,1,1,7130443,0.5
18,0,1.093,79,1,0,7130443,0.5
18,0,0.859,80,1,1,7130443,0.5
18,0,0.49,81,1,1,7130443,0.5
18,0,0.667,82,1,1,7130443,0.5
18,1,0.609,83,1,0,7130443,0.5
18,0,0.656,84,1,0,7130443,0.5
18,0,0.64,85,1,1,7130443,0.5
18,0,1.222,86,1,1,7130443,0.5
18,0,1.183,87,1,0,7130443,0.5
18,0,0.853,88,1,1,7130443,0.5
18,0,0.439,89,1,0,7130443,0.5
18,0,0.533,90,1,0,7130443,0.5
18,1,0.601,91,1,1,7130443,0.5
18,1,0.764,92,1,1,7130443,0.5
18,1,0.705,93,1,0,7130443,0.5
18,1,0.42,94,1,0,7130443,0.5
18,0,0.698,95,1,0,7130443,0.5
18,0,0.742,96,1,1,7130443,0.5
18,0,0.434,97,1,1,7130443,0.5
18,0,0.649,98,1,1,7130443,0.5
18,1,1.403,99,1,0,7130443,0.5
18,1,1.26,100,1,0,7130443,0.5
18,0,0.97,101,1,1,7130443,0.5
18,0,0.53,102,1,1,7130443,0.5
18,0,0.648,103,1,1,7130443,0.5
18,0,0.559,104,1,1,7130443,0.5
18,0,0.551,105,1,1,7130443,0.5
18,0,0.468,106,1,1,7130443,0.5
18,1,0.976,107,1,0,7130443,0.5
18,0,0.884,108,1,1,7130443,0.5
18,0,0.681,109,1,0,7130443,0.5
18,0,0.519,110,1,1,7130443,0.5
18,0,0.858,111,1,0,7130443,0.5
18,0,1.854,112,1,1,7130443,0.5
18,1,0.697,113,1,0,7130443,0.5
18,1,1.735,114,1,1,7130443,0.5
18,0,1.643,115,1,1,7130443,0.5
18,0,0.609,116,1,1,7130443,0.5
18,0,1.697,117,1,1,7130443,0.5
18,0,1.26,118,1,1,7130443,0.5
18,0,0.694,119,1,0,7130443,0.5
18,0,0.854,120,1,0,7130443,0.5
18,0,0.565,121,1,1,7130443,0.5
18,0,0.551,122,1,1,7130443,0.5
18,0,1.356,123,1,0,7130443,0.5
18,0,0.969,124,1,0,7130443,0.5
18,0,0.506,125,1,0,7130443,0.5
18,1,1.118,126,1,1,7130443,0.5
18,1,0.499,127,1,0,7130443,0.5
18,1,0.784,128,1,1,7130443,0.5
18,1,0.517,129,1,1,7130443,0.5
18,1,0.585,130,1,1,7130443,0.5
18,1,0.556,131,1,1,7130443,0.5
18,1,1.051,132,1,1,7130443,0.5
18,0,1.245,133,1,0,7130443,0.5
18,1,1.559,134,1,0,7130443,0.5
18,0,0.645,135,1,0,7130443,0.5
18,1,0.559,136,1,1,7130443,0.5
18,0,0.752,137,1,0,7130443,0.5
18,1,0.622,138,1,1,7130443,0.5
18,0,0.562,139,1,0,7130443,0.5
18,0,0.903,140,1,0,7130443,0.5
18,0,0.725,141,1,1,7130443,0.5
18,0,0.45,142,1,0,7130443,0.5
18,0,0.718,143,1,0,7130443,0.5
18,1,0.976,144,1,1,7130443,0.5
18,0,0.787,145,1,1,7130443,0.5
18,1,0.56,146,1,1,7130443,0.5
18,0,0.619,147,1,0,7130443,0.5
18,0,0.464,148,1,0,7130443,0.5
18,1,0.363,149,1,1,7130443,0.5
18,1,1.236,150,1,0,7130443,0.5
18,1,1.737,151,1,1,7130443,0.5
18,1,0.48,152,1,1,7130443,0.5
18,1,0.79,153,1,1,7130443,0.5
18,1,0.593,154,1,0,7130443,0.5
18,1,0.666,155,1,0,7130443,0.5
18,0,0.379,156,1,1,7130443,0.5
18,0,1.369,157,1,1,7130443,0.5
18,0,1.051,158,1,1,7130443,0.5
18,0,0.633,159,1,0,7130443,0.5
18,0,0.508,160,1,0,7130443,0.5
19,1,1.323,1,1,0,7121275,0.5
19,0,1.781,2,1,1,7121275,0.5
19,0,0.773,3,1,1,7121275,0.5
19,0,0.674,4,1,1,7121275,0.5
19,0,0.562,5,1,1,7121275,0.5
19,0,0.624,6,1,0,7121275,0.5
19,0,0.993,7,1,1,7121275,0.5
19,0,0.719,8,1,0,7121275,0.5
19,0,0.826,9,1,0,7121275,0.5
19,0,1.004,10,1,1,7121275,0.5
19,1,0.875,11,1,0,7121275,0.5
19,0,1.029,12,1,0,7121275,0.5
19,0,1.276,13,1,0,7121275,0.5
19,1,1.616,14,1,0,7121275,0.5
19,1,0.727,15,1,0,7121275,0.5
19,0,0.775,16,1,1,7121275,0.5
19,0,0.523,17,1,0,7121275,0.5
19,1,1.264,18,1,0,7121275,0.5
19,1,1.691,19,1,1,7121275,0.5
19,0,0.963,20,1,0,7121275,0.5
19,1,1.045,21,1,1,7121275,0.5
19,1,0.751,22,1,0,7121275,0.5
19,0,1.571,23,1,1,7121275,0.5
19,0,0.698,24,1,1,7121275,0.5
19,0,0.845,25,1,1,7121275,0.5
19,0,0.76,26,1,1,7121275,0.5
19,0,0.97,27,1,1,7121275,0.5
19,0,0.464,28,1,1,7121275,0.5
19,1,1.045,29,1,1,7121275,0.5
19,0,0.729,30,1,1,7121275,0.5
19,0,0.726,31,1,1,7121275,0.5
19,0,0.621,32,1,0,7121275,0.5
19,1,0.856,33,1,0,7121275,0.5
19,0,1.008,34,1,0,7121275,0.5
19,0,0.683,35,1,1,7121275,0.5
19,0,0.647,36,1,1,7121275,0.5
19,0,0.702,37,1,1,7121275,0.5
19,1,0.88,38,1,0,7121275,0.5
19,0,0.782,39,1,1,7121275,0.5
19,0,0.545,40,1,1,7121275,0.5
19,0,0.515,41,1,1,7121275,0.5
19,0,0.859,42,1,1,7121275,0.5
19,0,0.986,43,1,0,7121275,0.5
19,0,1.03,44,1,0,7121275,0.5
19,0,0.651,45,1,0,7121275,0.5
19,1,0.908,46,1,0,7121275,0.5
19,0,0.603,47,1,0,7121275,0.5
19,1,0.721,48,1,1,7121275,0.5
19,0,1.471,49,1,0,7121275,0.5
19,1,0.652,50,1,0,7121275,0.5
19,0,0.599,51,1,1,7121275,0.5
19,0,0.704,52,1,0,7121275,0.5
19,1,0.898,53,1,1,7121275,0.5
19,0,0.602,54,1,0,7121275,0.5
19,0,1.081,55,1,0,7121275,0.5
19,0,0.672,56,1,0,7121275,0.5
19,1,0.593,57,1,1,7121275,0.5
19,0,0.549,58,1,0,7121275,0.5
19,0,0.528,59,1,0,7121275,0.5
19,0,0.546,60,1,1,7121275,0.5
19,0,0.577,61,1,0,7121275,0.5
19,1,0.467,62,1,1,7121275,0.5
19,1,0.968,63,1,0,7121275,0.5
19,1,0.431,64,1,1,7121275,0.5
19,1,0.768,65,1,1,7121275,0.5
19,1,0.5,66,1,1,7121275,0.5
19,1,0.596,67,1,1,7121275,0.5
19,0,0.983,68,1,0,7121275,0.5
19,1,0.764,69,1,1,7121275,0.5
19,1,1.624,70,1,0,7121275,0.5
19,1,0.539,71,1,0,7121275,0.5
19,0,0.484,72,1,0,7121275,0.5
19,1,0.461,73,1,1,7121275,0.5
19,1,0.543,74,1,1,7121275,0.5
19,0,0.652,75,1,1,7121275,0.5
19,1,0.562,76,1,1,7121275,0.5
19,0,0.555,77,1,0,7121275,0.5
19,1,0.65,78,1,0,7121275,0.5
19,0,0.741,79,1,1,7121275,0.5
19,0,0.56,80,1,0,7121275,0.5
19,1,0.774,81,1,0,7121275,0.5
19,1,0.734,82,1,1,7121275,0.5
19,0,0.654,83,1,1,7121275,0.5
19,0,0.613,84,1,1,7121275,0.5
19,1,1.297,85,1,0,7121275,0.5
19,1,0.526,86,1,0,7121275,0.5
19,0,0.665,87,1,1,7121275,0.5
19,0,0.662,88,1,1,7121275,0.5
19,0,0.619,89,1,0,7121275,0.5
19,1,0.726,90,1,0,7121275,0.5
19,0,1.003,91,1,1,7121275,0.5
19,0,0.591,92,1,1,7121275,0.5
19,0,0.874,93,1,1,7121275,0.5
19,0,0.777,94,1,1,7121275,0.5
19,1,0.949,95,1,0,7121275,0.5
19,1,0.97,96,1,1,7121275,0.5
19,0,0.751,97,1,1,7121275,0.5
19,1,0.601,98,1,0,7121275,0.5
19,0,0.571,99,1,1,7121275,0.5
19,0,0.685,100,1,1,7121275,0.5
19,0,0.305,101,1,1,7121275,0.5
19,0,0.305,102,1,0,7121275,0.5
19,1,0.262,103,1,1,7121275,0.5
19,0,0.263,104,1,0,7121275,0.5
19,1,0.322,105,1,0,7121275,0.5
19,1,0.211,106,1,1,7121275,0.5
19,0,1.428,107,1,1,7121275,0.5
19,0,0.409,108,1,0,7121275,0.5
19,0,0.439,109,1,1,7121275,0.5
19,1,0.265,110,1,1,7121275,0.5
19,0,0.413,111,1,1,7121275,0.5
19,1,0.459,112,1,1,7121275,0.5
19,1,0.335,113,1,1,7121275,0.5
19,1,0.421,114,1,0,7121275,0.5
19,0,0.495,115,1,1,7121275,0.5
19,0,0.671,116,1,1,7121275,0.5
19,0,0.553,117,1,0,7121275,0.5
19,1,0.484,118,1,0,7121275,0.5
19,0,0.369,119,1,1,7121275,0.5
19,0,0.899,120,1,1,7121275,0.5
19,0,0.448,121,1,1,7121275,0.5
19,1,0.526,122,1,1,7121275,0.5
19,1,0.483,123,1,1,7121275,0.5
19,1,0.347,124,1,1,7121275,0.5
19,0,0.315,125,1,1,7121275,0.5
19,1,0.54,126,1,1,7121275,0.5
19,1,0.506,127,1,1,7121275,0.5
19,1,0.287,128,1,1,7121275,0.5
19,1,0.542,129,1,0,7121275,0.5
19,1,0.269,130,1,1,7121275,0.5
19,0,0.249,131,1,1,7121275,0.5
19,1,0.286,132,1,1,7121275,0.5
19,0,0.33,133,1,0,7121275,0.5
19,0,0.243,134,1,0,7121275,0.5
19,0,0.334,135,1,0,7121275,0.5
19,0,0.306,136,1,1,7121275,0.5
19,0,0.589,137,1,1,7121275,0.5
19,0,0.431,138,1,1,7121275,0.5
19,1,0.737,139,1,1,7121275,0.5
19,1,0.99,140,1,1,7121275,0.5
19,1,0.464,141,1,0,7121275,0.5
19,0,0.254,142,1,1,7121275,0.5
19,0,0.314,143,1,1,7121275,0.5
19,0,0.448,144,1,0,7121275,0.5
19,1,0.297,145,1,1,7121275,0.5
19,1,0.318,146,1,1,7121275,0.5
19,1,0.293,147,1,0,7121275,0.5
19,0,0.406,148,1,0,7121275,0.5
19,0,0.295,149,1,0,7121275,0.5
19,1,0.266,150,1,1,7121275,0.5
19,1,0.34,151,1,1,7121275,0.5
19,0,0.279,152,1,0,7121275,0.5
19,0,0.263,153,1,0,7121275,0.5
19,1,0.289,154,1,1,7121275,0.5
19,0,0.279,155,1,0,7121275,0.5
19,0,0.286,156,1,0,7121275,0.5
19,1,0.234,157,1,1,7121275,0.5
19,0,0.385,158,1,1,7121275,0.5
19,1,0.92,159,1,1,7121275,0.5
19,1,0.522,160,1,1,7121275,0.5
20,1,0.909,1,1,1,7127520,0.5
20,1,0.235,2,1,0,7127520,0.5
20,0,0.511,3,1,1,7127520,0.5
20,0,0.766,4,1,0,7127520,0.5
20,1,0.328,5,1,1,7127520,0.5
20,1,0.462,6,1,1,7127520,0.5
20,1,0.368,7,1,1,7127520,0.5
20,1,0.418,8,1,0,7127520,0.5
20,0,0.318,9,1,1,7127520,0.5
20,0,0.332,10,1,1,7127520,0.5
20,0,0.461,11,1,0,7127520,0.5
20,1,0.217,12,1,1,7127520,0.5
20,1,0.238,13,1,0,7127520,0.5
20,0,0.393,14,1,0,7127520,0.5
20,1,0.251,15,1,0,7127520,0.5
20,1,0.26,16,1,1,7127520,0.5
20,1,0.486,17,1,0,7127520,0.5
20,1,0.345,18,1,0,7127520,0.5
20,0,0.342,19,1,1,7127520,0.5
20,0,0.279,20,1,1,7127520,0.5
20,1,0.259,21,1,1,7127520,0.5
20,1,0.226,22,1,0,7127520,0.5
20,1,0.428,23,1,0,7127520,0.5
20,0,0.302,24,1,1,7127520,0.5
20,0,0.287,25,1,1,7127520,0.5
20,0,0.312,26,1,1,7127520,0.5
20,0,0.396,27,1,1,7127520,0.5
20,0,0.347,28,1,1,7127520,0.5
20,0,0.316,29,1,1,7127520,0.5
20,1,0.478,30,1,1,7127520,0.5
20,1,0.28,31,1,1,7127520,0.5
20,1,0.35,32,1,0,7127520,0.5
20,0,0.64,33,1,1,7127520,0.5
20,0,0.315,34,1,1,7127520,0.5
20,0,0.339,35,1,1,7127520,0.5
20,0,0.363,36,1,1,7127520,0.5
20,0,0.398,37,1,1,7127520,0.5
20,0,0.283,38,1,1,7127520,0.5
20,0,0.52,39,1,1,7127520,0.5
20,0,0.364,40,1,1,7127520,0.5
20,0,0.378,41,1,0,7127520,0.5
20,1,0.473,42,1,1,7127520,0.5
20,1,0.352,43,1,1,7127520,0.5
20,1,0.227,44,1,0,7127520,0.5
20,0,0.464,45,1,0,7127520,0.5
20,1,0.383,46,1,1,7127520,0.5
20,1,0.325,47,1,0,7127520,0.5
20,0,0.492,48,1,0,7127520,0.5
20,1,0.21,49,1,1,7127520,0.5
20,1,0.521,50,1,1,7127520,0.5
20,1,0.387,51,1,0,7127520,0.5
20,0,0.403,52,1,0,7127520,0.5
20,1,0.347,53,1,1,7127520,0.5
20,1,0.433,54,1,1,7127520,0.5
20,1,0.41,55,1,1,7127520,0.5
20,1,0.441,56,1,0,7127520,0.5
20,0,0.501,57,1,0,7127520,0.5
20,0,0.434,58,1,0,7127520,0.5
20,0,0.334,59,1,1,7127520,0.5
20,0,0.336,60,1,0,7127520,0.5
20,1,0.273,61,1,0,7127520,0.5
20,0,0.261,62,1,0,7127520,0.5
20,0,0.493,63,1,0,7127520,0.5
20,0,0.562,64,1,0,7127520,0.5
20,1,0.412,65,1,0,7127520,0.5
20,0,0.466,66,1,1,7127520,0.5
20,0,0.497,67,1,0,7127520,0.5
20,0,0.459,68,1,1,7127520,0.5
20,0,0.633,69,1,0,7127520,0.5
20,1,0.4,70,1,1,7127520,0.5
20,1,0.553,71,1,1,7127520,0.5
20,1,0.335,72,1,1,7127520,0.5
20,0,0.551,73,1,0,7127520,0.5
20,1,0.279,74,1,1,7127520,0.5
20,1,0.504,75,1,1,7127520,0.5
20,1,0.451,76,1,1,7127520,0.5
20,1,0.924,77,1,0,7127520,0.5
20,0,0.442,78,1,1,7127520,0.5
20,1,0.399,79,1,0,7127520,0.5
20,0,0.381,80,1,0,7127520,0.5
20,1,0.271,81,1,0,7127520,0.5
20,0,0.596,82,1,1,7127520,0.5
20,0,0.413,83,1,1,7127520,0.5
20,0,0.382,84,1,1,7127520,0.5
20,0,0.35,85,1,1,7127520,0.5
20,0,0.314,86,1,1,7127520,0.5
20,0,0.386,87,1,1,7127520,0.5
20,0,0.266,88,1,0,7127520,0.5
20,0,0.315,89,1,0,7127520,0.5
20,1,0.297,90,1,0,7127520,0.5
20,0,0.297,91,1,0,7127520,0.5
20,1,0.438,92,1,0,7127520,0.5
20,0,0.652,93,1,0,7127520,0.5
20,1,0.789,94,1,1,7127520,0.5
20,1,0.585,95,1,1,7127520,0.5
20,1,0.539,96,1,0,7127520,0.5
20,0,0.367,97,1,1,7127520,0.5
20,1,0.231,98,1,1,7127520,0.5
20,1,0.323,99,1,0,7127520,0.5
20,0,0.166,100,1,1,7127520,0.5
20,0,0.157,101,1,0,7127520,0.5
20,1,0.271,102,1,0,7127520,0.5
20,1,0.408,103,1,0,7127520,0.5
20,0,0.293,104,1,1,7127520,0.5
20,0,0.376,105,1,1,7127520,0.5
20,0,0.304,106,1,1,7127520,0.5
20,0,0.328,107,1,0,7127520,0.5
20,1,0.357,108,1,0,7127520,0.5
20,1,0.391,109,1,0,7127520,0.5
20,1,0.386,110,1,0,7127520,0.5
20,0,0.75,111,1,1,7127520,0.5
20,0,0.467,112,1,0,7127520,0.5
20,1,0.698,113,1,0,7127520,0.5
20,0,0.424,114,1,1,7127520,0.5
20,0,0.539,115,1,1,7127520,0.5
20,0,0.686,116,1,1,7127520,0.5
20,0,0.479,117,1,1,7127520,0.5
20,0,0.332,118,1,0,7127520,0.5
20,1,0.297,119,1,1,7127520,0.5
20,1,0.343,120,1,0,7127520,0.5
20,0,0.305,121,1,0,7127520,0.5
20,0,0.389,122,1,0,7127520,0.5
20,1,0.323,123,1,0,7127520,0.5
20,1,0.293,124,1,1,7127520,0.5
20,0,0.289,125,1,0,7127520,0.5
20,1,0.407,126,1,1,7127520,0.5
20,1,0.373,127,1,0,7127520,0.5
20,0,0.449,128,1,0,7127520,0.5
20,0,0.385,129,1,0,7127520,0.5
20,1,0.442,130,1,1,7127520,0.5
20,1,0.3,131,1,1,7127520,0.5
20,1,0.317,132,1,1,7127520,0.5
20,1,0.261,133,1,1,7127520,0.5
20,1,0.35,134,1,0,7127520,0.5
20,0,0.378,135,1,0,7127520,0.5
20,1,0.264,136,1,0,7127520,0.5
20,1,0.469,137,1,1,7127520,0.5
20,0,0.257,138,1,1,7127520,0.5
20,1,0.233,139,1,0,7127520,0.5
20,0,0.357,140,1,0,7127520,0.5
20,1,0.418,141,1,1,7127520,0.5
20,1,0.251,142,1,1,7127520,0.5
20,1,0.292,143,1,1,7127520,0.5
20,1,0.351,144,1,1,7127520,0.5
20,1,0.253,145,1,0,7127520,0.5
20,0,0.361,146,1,0,7127520,0.5
20,0,0.448,147,1,1,7127520,0.5
20,0,0.269,148,1,0,7127520,0.5
20,0,0.3,149,1,0,7127520,0.5
20,1,0.402,150,1,1,7127520,0.5
20,1,0.306,151,1,1,7127520,0.5
20,1,0.396,152,1,0,7127520,0.5
20,1,0.43,153,1,1,7127520,0.5
20,1,0.34,154,1,0,7127520,0.5
20,0,0.25,155,1,0,7127520,0.5
20,1,0.309,156,1,1,7127520,0.5
20,0,0.556,157,1,0,7127520,0.5
20,1,0.257,158,1,0,7127520,0.5
20,0,0.507,159,1,0,7127520,0.5
